1,2,3,4,5,6,7,8,9,10,11,12,13,14,15,16,17,18,19,20,
FC_ACC_X,FC_ACC_Y,FC_ACC_Z,FC_GYR_X,FC_GYR_Y,FC_GYR_Z,FC_MAG_X,FC_MAG_Y,FC_MAG_Z,FC_ALT_BAR,FC_ALT_FU,FC_ATT_ROL,FC_ATT_PIT,FC_ATT_YAW,FC_Votage,FC_SenserTMP,FC_CTRLOUT_PWM1,FC_CTRLOUT_PWM2,FC_CTRLOUT_PWM3,FC_CTRLOUT_PWM4,
0,0,0,0,0,0,-132,652,-350,265.68,0,0,0,0,0,38.6,0,0,0,0,
0,0,0,0,0,0,-132,652,-350,265.68,0,2.3,-1.19,87.39,0,38.6,0,0,0,0,
0,0,0,0,0,0,-132,652,-350,265.68,-1.32,2.3,-1.19,87.39,0,38.6,0,0,0,0,
0,0,0,0,0,0,-132,652,-350,265.68,-1.32,2.3,-1.19,87.39,0,38.6,0,0,0,0,
-24,53,1362,-2,0,0,-132,652,-350,265.68,-1.32,2.3,-1.19,87.39,0,38.6,0,0,0,0,
-24,53,1362,-2,0,0,-132,652,-350,265.68,-1.32,2.3,-1.19,87.4,0,38.6,0,0,0,0,
-24,53,1362,-2,0,0,-132,652,-350,265.68,-1.32,2.3,-1.19,87.4,0,38.6,0,0,0,0,
-26,55,1364,-4,1,2,-132,652,-350,265.68,-1.32,2.3,-1.19,87.4,0,38.6,0,0,0,0,
-26,55,1364,-4,1,2,-132,652,-350,265.68,-1.32,2.3,-1.19,87.4,0,38.6,0,0,0,0,
-24,52,1364,-5,-1,1,-132,652,-350,265.68,-1.32,2.3,-1.19,87.4,0,38.6,0,0,0,0,
-24,52,1364,-5,-1,1,-131,652,-335,265.67,-1.32,2.3,-1.19,87.4,0,38.6,0,0,0,0,
-24,52,1364,-5,-1,1,-131,652,-335,265.67,-1.32,2.29,-1.19,87.41,0,38.6,0,0,0,0,
-24,52,1364,-5,-1,1,-131,652,-335,265.67,-1.32,2.29,-1.19,87.41,0,38.6,0,0,0,0,
-24,52,1364,-5,-1,1,-131,652,-335,265.67,-1.32,2.29,-1.19,87.41,15.55,38.6,0,0,0,0,
-24,52,1364,-5,-1,1,-131,652,-335,265.67,-1.32,2.29,-1.19,87.41,15.55,38.6,0,0,0,0,
-24,52,1364,1,2,0,-131,652,-335,265.67,-1.32,2.29,-1.19,87.41,15.55,38.6,0,0,0,0,
-24,52,1364,1,2,0,-131,652,-335,265.67,-1.32,2.29,-1.19,87.42,15.55,38.6,0,0,0,0,
-24,52,1364,1,2,0,-131,652,-335,265.67,-1.32,2.29,-1.19,87.42,15.55,38.6,0,0,0,0,
-26,55,1364,2,0,0,-131,652,-335,265.67,-1.32,2.29,-1.19,87.42,15.55,38.6,0,0,0,0,
-26,55,1364,2,0,0,-132,653,-344,265.68,-1.32,2.29,-1.19,87.42,15.55,38.6,0,0,0,0,
-26,55,1364,2,0,0,-132,653,-344,265.68,-1.32,2.29,-1.19,87.43,15.55,38.6,0,0,0,0,
-26,55,1364,2,0,0,-132,653,-344,265.68,-1.32,2.29,-1.19,87.43,15.55,38.6,0,0,0,0,
-26,55,1364,2,0,0,-132,653,-344,265.68,-1.32,2.29,-1.19,87.43,15.55,38.6,0,0,0,0,
-27,51,1361,-5,0,-2,-132,653,-344,265.68,-1.32,2.29,-1.19,87.43,15.55,38.6,0,0,0,0,
-27,51,1361,-5,0,-2,-132,653,-344,265.68,-1.32,2.29,-1.19,87.44,15.55,38.6,0,0,0,0,
-27,51,1361,-5,0,-2,-132,653,-344,265.68,-1.32,2.29,-1.19,87.44,15.55,38.6,0,0,0,0,
-26,55,1366,-1,0,1,-132,653,-344,265.68,-1.32,2.29,-1.19,87.44,15.55,38.6,0,0,0,0,
-26,55,1366,-1,0,1,-132,653,-344,265.68,-1.32,2.29,-1.19,87.44,15.55,38.6,0,0,0,0,
-27,52,1364,-1,0,1,-132,653,-344,265.68,-1.32,2.29,-1.19,87.44,15.55,38.6,0,0,0,0,
-27,52,1364,-1,0,1,-128,654,-332,265.67,-1.32,2.29,-1.19,87.44,15.55,38.6,0,0,0,0,
-27,52,1364,-1,0,1,-128,654,-332,265.67,-1.32,2.29,-1.19,87.45,15.55,38.6,0,0,0,0,
-27,52,1364,-1,0,1,-128,654,-332,265.67,-1.32,2.29,-1.19,87.45,15.55,38.6,0,0,0,0,
-27,52,1364,-1,0,1,-128,654,-332,265.67,-1.32,2.29,-1.19,87.45,15.55,38.6,0,0,0,0,
-25,52,1364,0,0,-1,-128,654,-332,265.67,-1.32,2.29,-1.19,87.45,15.55,38.6,0,0,0,0,
-25,52,1364,0,0,-1,-128,654,-332,265.67,-1.32,2.29,-1.19,87.46,15.55,38.6,0,0,0,0,
-25,52,1364,0,0,-1,-128,654,-332,265.67,-1.32,2.29,-1.19,87.46,15.55,38.6,0,0,0,0,
-23,51,1366,-1,0,0,-128,654,-332,265.67,-1.32,2.29,-1.19,87.46,15.55,38.6,0,0,0,0,
-23,51,1366,-1,0,0,-131,651,-334,265.67,-1.32,2.29,-1.19,87.46,15.55,38.6,0,0,0,0,
-23,51,1366,-1,0,0,-131,651,-334,265.67,-1.32,2.29,-1.19,87.47,15.55,38.6,0,0,0,0,
-23,51,1366,-1,0,0,-131,651,-334,265.67,-1.32,2.29,-1.19,87.47,15.55,38.6,0,0,0,0,
-23,51,1366,-1,0,0,-131,651,-334,265.67,-1.32,2.29,-1.19,87.47,15.55,38.6,0,0,0,0,
-26,52,1366,-3,-2,1,-131,651,-334,265.67,-1.32,2.29,-1.19,87.47,15.55,38.6,0,0,0,0,
-26,52,1366,-3,-2,1,-131,651,-334,265.67,-1.32,2.28,-1.19,87.47,15.55,38.6,0,0,0,0,
-26,52,1366,-3,-2,1,-131,651,-334,265.67,-1.32,2.28,-1.19,87.47,15.55,38.6,0,0,0,0,
-24,54,1366,0,0,0,-131,651,-334,265.67,-1.32,2.28,-1.19,87.47,15.55,38.6,0,0,0,0,
-24,54,1366,0,0,0,-131,651,-334,265.67,-1.32,2.28,-1.19,87.47,15.55,38.6,0,0,0,0,
-25,55,1364,-4,1,0,-131,651,-334,265.67,-1.32,2.28,-1.19,87.47,15.55,38.6,0,0,0,0,
-25,55,1364,-4,1,0,-137,654,-333,265.64,-1.32,2.28,-1.19,87.47,15.55,38.6,0,0,0,0,
-25,55,1364,-4,1,0,-137,654,-333,265.64,-1.32,2.28,-1.2,87.48,15.55,38.6,0,0,0,0,
-25,55,1364,-4,1,0,-137,654,-333,265.64,-1.32,2.28,-1.2,87.48,15.55,38.6,0,0,0,0,
-25,55,1364,-4,1,0,-137,654,-333,265.64,-1.32,2.28,-1.2,87.48,15.55,38.6,0,0,0,0,
-25,55,1365,0,-1,0,-137,654,-333,265.64,-1.32,2.28,-1.2,87.48,15.55,38.6,0,0,0,0,
-25,55,1365,0,-1,0,-137,654,-333,265.64,-1.32,2.28,-1.19,87.49,15.55,38.6,0,0,0,0,
-25,55,1365,0,-1,0,-137,654,-333,265.64,-1.32,2.28,-1.19,87.49,15.55,38.6,0,0,0,0,
-26,52,1362,-1,0,0,-137,654,-333,265.64,-1.32,2.28,-1.19,87.49,15.55,38.6,0,0,0,0,
-26,52,1362,-1,0,0,-129,650,-332,265.66,-1.32,2.28,-1.19,87.49,15.55,38.6,0,0,0,0,
-26,52,1362,-1,0,0,-129,650,-332,265.66,-1.32,2.28,-1.19,87.5,15.55,38.6,0,0,0,0,
-26,52,1362,-1,0,0,-129,650,-332,265.66,-1.32,2.28,-1.19,87.5,15.55,38.6,0,0,0,0,
-26,52,1362,-1,0,0,-129,650,-332,265.66,-1.32,2.28,-1.19,87.5,15.55,38.6,0,0,0,0,
-24,53,1366,-5,0,0,-129,650,-332,265.66,-1.32,2.28,-1.19,87.5,15.55,38.6,0,0,0,0,
-24,53,1366,-5,0,0,-129,650,-332,265.66,-1.32,2.28,-1.19,87.51,15.55,38.6,0,0,0,0,
-24,53,1366,-5,0,0,-129,650,-332,265.66,-1.32,2.28,-1.19,87.51,15.55,38.6,0,0,0,0,
-26,51,1365,-4,0,-1,-129,650,-332,265.66,-1.32,2.28,-1.19,87.51,15.55,38.6,0,0,0,0,
-26,51,1365,-4,0,-1,-129,650,-332,265.66,-1.32,2.28,-1.19,87.51,15.55,38.6,0,0,0,0,
-25,56,1363,-3,0,0,-129,650,-332,265.66,-1.32,2.28,-1.19,87.51,15.55,38.6,0,0,0,0,
-25,56,1363,-3,0,0,-131,647,-328,265.67,-1.32,2.28,-1.19,87.51,15.55,38.6,0,0,0,0,
-25,56,1363,-3,0,0,-131,647,-328,265.67,-1.32,2.27,-1.19,87.52,15.55,38.6,0,0,0,0,
-25,56,1363,-3,0,0,-131,647,-328,265.67,-1.32,2.27,-1.19,87.52,15.55,38.6,0,0,0,0,
-25,56,1363,-3,0,0,-131,647,-328,265.67,-1.32,2.27,-1.19,87.52,15.55,38.6,0,0,0,0,
-25,56,1363,-3,0,0,-131,647,-328,265.67,-1.32,2.27,-1.19,87.52,15.55,38.6,0,0,0,0,
-27,51,1364,0,0,-1,-131,647,-328,265.67,-1.32,2.27,-1.19,87.52,15.55,38.6,0,0,0,0,
-27,51,1364,0,0,-1,-131,647,-328,265.67,-1.32,2.27,-1.19,87.53,15.55,38.6,0,0,0,0,
-27,51,1364,0,0,-1,-131,647,-328,265.67,-1.32,2.27,-1.19,87.53,15.55,38.6,0,0,0,0,
-23,51,1366,-3,-1,0,-131,647,-328,265.67,-1.32,2.27,-1.19,87.53,15.55,38.6,0,0,0,0,
-23,51,1366,-3,-1,0,-130,652,-339,265.64,-1.32,2.27,-1.19,87.53,15.55,38.6,0,0,0,0,
-23,51,1366,-3,-1,0,-130,652,-339,265.64,-1.32,2.28,-1.19,87.54,15.55,38.6,0,0,0,0,
-23,51,1366,-3,-1,0,-130,652,-339,265.64,-1.32,2.28,-1.19,87.54,15.55,38.6,0,0,0,0,
-23,51,1366,-3,-1,0,-130,652,-339,265.64,-1.32,2.28,-1.19,87.54,15.55,38.6,0,0,0,0,
-23,55,1359,0,0,-1,-130,652,-339,265.64,-1.32,2.28,-1.19,87.54,15.55,38.6,0,0,0,0,
-23,55,1359,0,0,-1,-130,652,-339,265.64,-1.32,2.28,-1.19,87.55,15.55,38.6,0,0,0,0,
-23,55,1359,0,0,-1,-130,652,-339,265.64,-1.32,2.28,-1.19,87.55,15.55,38.6,0,0,0,0,
-25,53,1367,0,1,0,-130,652,-339,265.64,-1.32,2.28,-1.19,87.55,15.55,38.6,0,0,0,0,
-25,53,1367,0,1,0,-130,652,-339,265.64,-1.32,2.28,-1.19,87.55,15.55,38.6,0,0,0,0,
-24,51,1366,-4,-1,0,-130,652,-339,265.64,-1.32,2.28,-1.19,87.55,15.55,38.6,0,0,0,0,
-24,51,1366,-4,-1,0,-132,652,-331,265.66,-1.32,2.28,-1.19,87.55,15.55,38.6,0,0,0,0,
-24,51,1366,-4,-1,0,-132,652,-331,265.66,-1.32,2.28,-1.19,87.56,15.55,38.6,0,0,0,0,
-24,51,1366,-4,-1,0,-132,652,-331,265.66,-1.33,2.28,-1.19,87.56,15.55,38.6,0,0,0,0,
-24,51,1366,-4,-1,0,-132,652,-331,265.66,-1.33,2.28,-1.19,87.56,15.55,38.6,0,0,0,0,
-24,56,1369,-6,0,-1,-132,652,-331,265.66,-1.33,2.28,-1.19,87.56,15.55,38.6,0,0,0,0,
-24,56,1369,-6,0,-1,-132,652,-331,265.66,-1.33,2.27,-1.19,87.57,15.55,38.6,0,0,0,0,
-24,56,1369,-6,0,-1,-132,652,-331,265.66,-1.33,2.27,-1.19,87.57,15.55,38.6,0,0,0,0,
-24,50,1367,0,0,-1,-132,652,-331,265.66,-1.33,2.27,-1.19,87.57,15.55,38.6,0,0,0,0,
-24,50,1367,0,0,-1,-111,634,-336,265.64,-1.33,2.27,-1.19,87.57,15.55,38.6,0,0,0,0,
-24,50,1367,0,0,-1,-111,634,-336,265.64,-1.33,2.27,-1.19,87.57,15.55,38.6,0,0,0,0,
-24,50,1367,0,0,-1,-111,634,-336,265.64,-1.33,2.27,-1.19,87.57,15.55,38.6,0,0,0,0,
-24,50,1367,0,0,-1,-111,634,-336,265.64,-1.33,2.27,-1.19,87.57,15.55,38.6,0,0,0,0,
-24,55,1363,0,0,-1,-111,634,-336,265.64,-1.33,2.27,-1.19,87.57,15.55,38.6,0,0,0,0,
-24,55,1363,0,0,-1,-111,634,-336,265.64,-1.33,2.27,-1.19,87.58,15.55,38.6,0,0,0,0,
-24,55,1363,0,0,-1,-111,634,-336,265.64,-1.33,2.27,-1.19,87.58,15.55,38.6,0,0,0,0,
-24,50,1367,-2,-1,1,-111,634,-336,265.64,-1.33,2.27,-1.19,87.58,15.55,38.6,0,0,0,0,
-24,50,1367,-2,-1,1,-111,634,-336,265.64,-1.33,2.27,-1.19,87.58,15.55,38.6,0,0,0,0,
-25,54,1366,-3,1,1,-111,634,-336,265.64,-1.33,2.27,-1.19,87.58,15.55,38.6,0,0,0,0,
-25,54,1366,-3,1,1,-110,636,-327,265.67,-1.33,2.27,-1.19,87.58,15.55,38.6,0,0,0,0,
-25,54,1366,-3,1,1,-110,636,-327,265.67,-1.33,2.27,-1.19,87.59,15.55,38.6,0,0,0,0,
-25,54,1366,-3,1,1,-110,636,-327,265.67,-1.33,2.27,-1.19,87.59,15.55,38.6,0,0,0,0,
-25,54,1366,-3,1,1,-110,636,-327,265.67,-1.33,2.27,-1.19,87.59,15.55,38.6,0,0,0,0,
-23,51,1368,3,0,1,-110,636,-327,265.67,-1.33,2.27,-1.19,87.59,15.55,38.6,0,0,0,0,
-23,51,1368,3,0,1,-110,636,-327,265.67,-1.33,2.27,-1.19,87.6,15.55,38.6,0,0,0,0,
-23,51,1368,3,0,1,-110,636,-327,265.67,-1.33,2.27,-1.19,87.6,15.55,38.6,0,0,0,0,
-28,52,1365,-1,1,0,-110,636,-327,265.67,-1.33,2.27,-1.19,87.6,15.55,38.6,0,0,0,0,
-28,52,1365,-1,1,0,-111,631,-333,265.65,-1.33,2.27,-1.19,87.6,15.55,38.6,0,0,0,0,
-28,52,1365,-1,1,0,-111,631,-333,265.65,-1.33,2.27,-1.2,87.61,15.55,38.6,0,0,0,0,
-28,52,1365,-1,1,0,-111,631,-333,265.65,-1.33,2.27,-1.2,87.61,15.55,38.6,0,0,0,0,
-28,52,1365,-1,1,0,-111,631,-333,265.65,-1.33,2.27,-1.2,87.61,15.55,38.6,0,0,0,0,
-25,58,1364,-1,-1,1,-111,631,-333,265.65,-1.33,2.27,-1.2,87.61,15.55,38.6,0,0,0,0,
-25,58,1364,-1,-1,1,-111,631,-333,265.65,-1.33,2.27,-1.19,87.62,15.55,38.6,0,0,0,0,
-25,58,1364,-1,-1,1,-111,631,-333,265.65,-1.33,2.27,-1.19,87.62,15.55,38.6,0,0,0,0,
-26,50,1366,-1,-3,0,-111,631,-333,265.65,-1.33,2.27,-1.19,87.62,15.55,38.6,0,0,0,0,
-26,50,1366,-1,-3,0,-111,631,-333,265.65,-1.33,2.27,-1.19,87.62,15.55,38.6,0,0,0,0,
-24,55,1365,0,0,-1,-111,631,-333,265.65,-1.33,2.27,-1.19,87.62,15.55,38.6,0,0,0,0,
-24,55,1365,0,0,-1,-106,628,-330,265.64,-1.33,2.27,-1.19,87.62,15.55,38.6,0,0,0,0,
-24,55,1365,0,0,-1,-106,628,-330,265.64,-1.33,2.27,-1.19,87.62,15.55,38.6,0,0,0,0,
-24,55,1365,0,0,-1,-106,628,-330,265.64,-1.33,2.27,-1.19,87.62,15.55,38.6,0,0,0,0,
-24,55,1365,0,0,-1,-106,628,-330,265.64,-1.33,2.27,-1.19,87.62,15.56,38.6,0,0,0,0,
-24,55,1365,0,0,-1,-106,628,-330,265.64,-1.33,2.27,-1.19,87.62,15.56,38.6,0,0,0,0,
-23,54,1363,0,0,4,-106,628,-330,265.64,-1.33,2.27,-1.19,87.62,15.56,38.6,0,0,0,0,
-23,54,1363,0,0,4,-106,628,-330,265.64,-1.33,2.27,-1.19,87.63,15.56,38.6,0,0,0,0,
-23,54,1363,0,0,4,-106,628,-330,265.64,-1.33,2.27,-1.19,87.63,15.56,38.6,0,0,0,0,
-26,54,1363,2,3,0,-106,628,-330,265.64,-1.33,2.27,-1.19,87.63,15.56,38.6,0,0,0,0,
-26,54,1363,2,3,0,-108,632,-331,265.65,-1.33,2.27,-1.19,87.63,15.56,38.6,0,0,0,0,
-26,54,1363,2,3,0,-108,632,-331,265.65,-1.33,2.27,-1.19,87.64,15.56,38.6,0,0,0,0,
-26,54,1363,2,3,0,-108,632,-331,265.65,-1.33,2.27,-1.19,87.64,15.56,38.6,0,0,0,0,
-26,54,1363,2,3,0,-108,632,-331,265.65,-1.33,2.27,-1.19,87.64,15.56,38.6,0,0,0,0,
-27,52,1368,-3,2,0,-108,632,-331,265.65,-1.33,2.27,-1.19,87.64,15.56,38.6,0,0,0,0,
-27,52,1368,-3,2,0,-108,632,-331,265.65,-1.33,2.27,-1.2,87.65,15.56,38.6,0,0,0,0,
-27,52,1368,-3,2,0,-108,632,-331,265.65,-1.33,2.27,-1.2,87.65,15.56,38.6,0,0,0,0,
-23,56,1365,-3,1,2,-108,632,-331,265.65,-1.33,2.27,-1.2,87.65,15.56,38.6,0,0,0,0,
-23,56,1365,-3,1,2,-108,632,-331,265.65,-1.33,2.27,-1.2,87.65,15.56,38.6,0,0,0,0,
-25,54,1365,0,1,1,-108,632,-331,265.65,-1.33,2.27,-1.2,87.65,15.56,38.6,0,0,0,0,
-25,54,1365,0,1,1,-110,636,-339,265.67,-1.33,2.27,-1.2,87.65,15.56,38.6,0,0,0,0,
-25,54,1365,0,1,1,-110,636,-339,265.67,-1.33,2.27,-1.2,87.65,15.56,38.6,0,0,0,0,
-25,54,1365,0,1,1,-110,636,-339,265.67,-1.33,2.27,-1.2,87.65,15.56,38.6,0,0,0,0,
-25,54,1365,0,1,1,-110,636,-339,265.67,-1.33,2.27,-1.2,87.65,15.56,38.6,0,0,0,0,
-24,53,1366,-1,0,-1,-110,636,-339,265.67,-1.33,2.27,-1.2,87.65,15.56,38.6,0,0,0,0,
-24,53,1366,-1,0,-1,-110,636,-339,265.67,-1.33,2.27,-1.2,87.66,15.56,38.6,0,0,0,0,
-24,53,1366,-1,0,-1,-110,636,-339,265.67,-1.33,2.27,-1.2,87.66,15.56,38.6,0,0,0,0,
-25,50,1367,-5,0,0,-110,636,-339,265.67,-1.33,2.27,-1.2,87.66,15.56,38.6,0,0,0,0,
-25,50,1367,-5,0,0,-114,632,-336,265.65,-1.33,2.27,-1.2,87.66,15.56,38.6,0,0,0,0,
-25,50,1367,-5,0,0,-114,632,-336,265.65,-1.33,2.27,-1.2,87.67,15.56,38.6,0,0,0,0,
-25,50,1367,-5,0,0,-114,632,-336,265.65,-1.33,2.27,-1.2,87.67,15.56,38.6,0,0,0,0,
-25,50,1367,-5,0,0,-114,632,-336,265.65,-1.33,2.27,-1.2,87.67,15.56,38.6,0,0,0,0,
-23,49,1362,-3,-2,0,-114,632,-336,265.65,-1.33,2.27,-1.2,87.67,15.56,38.6,0,0,0,0,
-23,49,1362,-3,-2,0,-114,632,-336,265.65,-1.33,2.26,-1.2,87.68,15.56,38.6,0,0,0,0,
-23,49,1362,-3,-2,0,-114,632,-336,265.65,-1.33,2.26,-1.2,87.68,15.56,38.6,0,0,0,0,
-22,53,1363,-4,0,-1,-114,632,-336,265.65,-1.33,2.26,-1.2,87.68,15.56,38.6,0,0,0,0,
-22,53,1363,-4,0,-1,-114,632,-336,265.65,-1.33,2.26,-1.2,87.68,15.56,38.6,0,0,0,0,
-23,57,1363,0,3,-3,-114,632,-336,265.65,-1.33,2.26,-1.2,87.68,15.56,38.6,0,0,0,0,
-23,57,1363,0,3,-3,-109,632,-321,265.65,-1.33,2.26,-1.2,87.68,15.56,38.6,0,0,0,0,
-23,57,1363,0,3,-3,-109,632,-321,265.65,-1.33,2.26,-1.2,87.69,15.56,38.6,0,0,0,0,
-23,57,1363,0,3,-3,-109,632,-321,265.65,-1.33,2.26,-1.2,87.69,15.56,38.6,0,0,0,0,
-23,57,1363,0,3,-3,-109,632,-321,265.65,-1.33,2.26,-1.2,87.69,15.56,38.6,0,0,0,0,
-24,53,1364,-4,0,-1,-109,632,-321,265.65,-1.33,2.26,-1.2,87.69,15.56,38.6,0,0,0,0,
-24,53,1364,-4,0,-1,-109,632,-321,265.65,-1.33,2.26,-1.2,87.7,15.56,38.6,0,0,0,0,
-24,53,1364,-4,0,-1,-109,632,-321,265.65,-1.33,2.26,-1.2,87.7,15.56,38.6,0,0,0,0,
-25,54,1365,-1,1,0,-109,632,-321,265.65,-1.33,2.26,-1.2,87.7,15.56,38.6,0,0,0,0,
-25,54,1365,-1,1,0,-110,632,-329,265.63,-1.33,2.26,-1.2,87.7,15.56,38.6,0,0,0,0,
-25,54,1365,-1,1,0,-110,632,-329,265.63,-1.33,2.26,-1.2,87.71,15.56,38.6,0,0,0,0,
-25,54,1365,-1,1,0,-110,632,-329,265.63,-1.33,2.26,-1.2,87.71,15.56,38.6,0,0,0,0,
-25,54,1365,-1,1,0,-110,632,-329,265.63,-1.33,2.26,-1.2,87.71,15.56,38.6,0,0,0,0,
-25,55,1368,1,0,2,-110,632,-329,265.63,-1.33,2.26,-1.2,87.71,15.56,38.6,0,0,0,0,
-25,55,1368,1,0,2,-110,632,-329,265.63,-1.33,2.26,-1.2,87.72,15.56,38.6,0,0,0,0,
-25,55,1368,1,0,2,-110,632,-329,265.63,-1.33,2.26,-1.2,87.72,15.56,38.6,0,0,0,0,
-24,54,1366,-6,-1,-3,-110,632,-329,265.63,-1.33,2.26,-1.2,87.72,15.56,38.6,0,0,0,0,
-24,54,1366,-6,-1,-3,-110,632,-329,265.63,-1.33,2.26,-1.2,87.72,15.56,38.6,0,0,0,0,
-25,54,1365,-2,1,1,-110,632,-329,265.63,-1.33,2.26,-1.2,87.72,15.56,38.6,0,0,0,0,
-25,54,1365,-2,1,1,-113,630,-332,265.65,-1.33,2.26,-1.2,87.72,15.56,38.6,0,0,0,0,
-25,54,1365,-2,1,1,-113,630,-332,265.65,-1.33,2.25,-1.2,87.72,15.56,38.6,0,0,0,0,
-25,54,1365,-2,1,1,-113,630,-332,265.65,-1.33,2.25,-1.2,87.72,15.56,38.6,0,0,0,0,
-25,54,1365,-2,1,1,-113,630,-332,265.65,-1.33,2.25,-1.2,87.72,15.56,38.6,0,0,0,0,
-25,54,1365,-2,1,1,-113,630,-332,265.65,-1.33,2.25,-1.2,87.72,15.56,38.6,0,0,0,0,
-27,54,1365,-1,1,1,-113,630,-332,265.65,-1.33,2.25,-1.2,87.72,15.56,38.6,0,0,0,0,
-27,54,1365,-1,1,1,-113,630,-332,265.65,-1.33,2.25,-1.2,87.73,15.56,38.6,0,0,0,0,
-27,54,1365,-1,1,1,-113,630,-332,265.65,-1.33,2.25,-1.2,87.73,15.56,38.6,0,0,0,0,
-25,54,1365,-8,0,-1,-113,630,-332,265.65,-1.33,2.25,-1.2,87.73,15.56,38.6,0,0,0,0,
-25,54,1365,-8,0,-1,-117,637,-337,265.63,-1.33,2.25,-1.2,87.73,15.56,38.6,0,0,0,0,
-25,54,1365,-8,0,-1,-117,637,-337,265.63,-1.33,2.25,-1.2,87.74,15.56,38.6,0,0,0,0,
-25,54,1365,-8,0,-1,-117,637,-337,265.63,-1.33,2.25,-1.2,87.74,15.56,38.6,0,0,0,0,
-25,54,1365,-8,0,-1,-117,637,-337,265.63,-1.33,2.25,-1.2,87.74,15.56,38.6,0,0,0,0,
-24,54,1362,0,1,1,-117,637,-337,265.63,-1.33,2.25,-1.2,87.74,15.56,38.6,0,0,0,0,
-24,54,1362,0,1,1,-117,637,-337,265.63,-1.33,2.25,-1.2,87.74,15.56,38.6,0,0,0,0,
-24,54,1362,0,1,1,-117,637,-337,265.63,-1.33,2.25,-1.2,87.74,15.56,38.6,0,0,0,0,
-27,52,1365,0,2,-1,-117,637,-337,265.63,-1.33,2.25,-1.2,87.74,15.56,38.6,0,0,0,0,
-27,52,1365,0,2,-1,-117,637,-337,265.63,-1.33,2.25,-1.2,87.74,15.56,38.6,0,0,0,0,
-26,55,1364,2,0,0,-117,637,-337,265.63,-1.33,2.25,-1.2,87.74,15.56,38.6,0,0,0,0,
-26,55,1364,2,0,0,-120,636,-342,265.63,-1.33,2.25,-1.2,87.74,15.56,38.6,0,0,0,0,
-26,55,1364,2,0,0,-120,636,-342,265.63,-1.33,2.25,-1.2,87.75,15.56,38.6,0,0,0,0,
-26,55,1364,2,0,0,-120,636,-342,265.63,-1.33,2.25,-1.2,87.75,15.56,38.6,0,0,0,0,
-26,55,1364,2,0,0,-120,636,-342,265.63,-1.33,2.25,-1.2,87.75,15.56,38.6,0,0,0,0,
-27,54,1365,-3,0,-2,-120,636,-342,265.63,-1.33,2.25,-1.2,87.75,15.56,38.6,0,0,0,0,
-27,54,1365,-3,0,-2,-120,636,-342,265.63,-1.33,2.25,-1.2,87.76,15.56,38.6,0,0,0,0,
-27,54,1365,-3,0,-2,-120,636,-342,265.63,-1.33,2.25,-1.2,87.76,15.56,38.6,0,0,0,0,
-26,53,1365,-2,0,0,-120,636,-342,265.63,-1.33,2.25,-1.2,87.76,15.56,38.6,0,0,0,0,
-26,53,1365,-2,0,0,-123,642,-323,265.66,-1.33,2.25,-1.2,87.76,15.56,38.6,0,0,0,0,
-26,53,1365,-2,0,0,-123,642,-323,265.66,-1.33,2.25,-1.2,87.77,15.56,38.6,0,0,0,0,
-26,53,1365,-2,0,0,-123,642,-323,265.66,-1.33,2.25,-1.2,87.77,15.56,38.6,0,0,0,0,
-26,53,1365,-2,0,0,-123,642,-323,265.66,-1.33,2.25,-1.2,87.77,15.56,38.6,0,0,0,0,
-26,54,1368,0,0,0,-123,642,-323,265.66,-1.33,2.25,-1.2,87.77,15.56,38.6,0,0,0,0,
-26,54,1368,0,0,0,-123,642,-323,265.66,-1.33,2.25,-1.2,87.78,15.56,38.6,0,0,0,0,
-26,54,1368,0,0,0,-123,642,-323,265.66,-1.33,2.25,-1.2,87.78,15.56,38.6,0,0,0,0,
-24,53,1363,-3,1,1,-123,642,-323,265.66,-1.33,2.25,-1.2,87.78,15.56,38.6,0,0,0,0,
-24,53,1363,-3,1,1,-123,642,-323,265.66,-1.33,2.25,-1.2,87.78,15.56,38.6,0,0,0,0,
-25,52,1362,-1,0,0,-123,642,-323,265.66,-1.33,2.25,-1.2,87.78,15.56,38.6,0,0,0,0,
-25,52,1362,-1,0,0,-119,646,-330,265.65,-1.33,2.25,-1.2,87.78,15.56,38.6,0,0,0,0,
-25,52,1362,-1,0,0,-119,646,-330,265.65,-1.33,2.24,-1.2,87.78,15.56,38.6,0,0,0,0,
-25,52,1362,-1,0,0,-119,646,-330,265.65,-1.33,2.24,-1.2,87.78,15.56,38.6,0,0,0,0,
-25,52,1362,-1,0,0,-119,646,-330,265.65,-1.33,2.24,-1.2,87.78,15.56,38.6,0,0,0,0,
-23,58,1365,-2,0,0,-119,646,-330,265.65,-1.33,2.24,-1.2,87.78,15.56,38.6,0,0,0,0,
-23,58,1365,-2,0,0,-119,646,-330,265.65,-1.33,2.24,-1.21,87.79,15.56,38.6,0,0,0,0,
-23,58,1365,-2,0,0,-119,646,-330,265.65,-1.33,2.24,-1.21,87.79,15.56,38.6,0,0,0,0,
-24,52,1364,3,-1,0,-119,646,-330,265.65,-1.33,2.24,-1.21,87.79,15.56,38.6,0,0,0,0,
-24,52,1364,3,-1,0,-111,630,-327,265.64,-1.33,2.24,-1.21,87.79,15.56,38.6,0,0,0,0,
-24,52,1364,3,-1,0,-111,630,-327,265.64,-1.33,2.25,-1.21,87.8,15.56,38.6,0,0,0,0,
-24,52,1364,3,-1,0,-111,630,-327,265.64,-1.33,2.25,-1.21,87.8,15.56,38.6,0,0,0,0,
-24,52,1364,3,-1,0,-111,630,-327,265.64,-1.33,2.25,-1.21,87.8,15.56,38.6,0,0,0,0,
-25,53,1366,0,-1,0,-111,630,-327,265.64,-1.33,2.25,-1.21,87.8,15.56,38.6,0,0,0,0,
-25,53,1366,0,-1,0,-111,630,-327,265.64,-1.33,2.25,-1.21,87.8,15.56,38.6,0,0,0,0,
-25,53,1366,0,-1,0,-111,630,-327,265.64,-1.33,2.25,-1.21,87.8,15.56,38.6,0,0,0,0,
-23,54,1365,-2,0,1,-111,630,-327,265.64,-1.33,2.25,-1.21,87.8,15.56,38.6,0,0,0,0,
-23,54,1365,-2,0,1,-111,630,-327,265.64,-1.33,2.25,-1.21,87.8,15.56,38.6,0,0,0,0,
-24,51,1363,0,0,0,-111,630,-327,265.64,-1.33,2.25,-1.21,87.8,15.56,38.6,0,0,0,0,
-24,51,1363,0,0,0,-111,629,-321,265.68,-1.33,2.25,-1.21,87.8,15.56,38.6,0,0,0,0,
-24,51,1363,0,0,0,-111,629,-321,265.68,-1.33,2.24,-1.2,87.81,15.56,38.6,0,0,0,0,
-24,51,1363,0,0,0,-111,629,-321,265.68,-1.33,2.24,-1.2,87.81,15.56,38.6,0,0,0,0,
-24,51,1363,0,0,0,-111,629,-321,265.68,-1.33,2.24,-1.2,87.81,15.56,38.6,0,0,0,0,
-24,51,1363,0,0,0,-111,629,-321,265.68,-1.33,2.24,-1.2,87.81,15.56,38.6,0,0,0,0,
-24,53,1362,-3,-1,2,-111,629,-321,265.68,-1.33,2.24,-1.2,87.81,15.56,38.6,0,0,0,0,
-24,53,1362,-3,-1,2,-111,629,-321,265.68,-1.33,2.24,-1.2,87.82,15.56,38.6,0,0,0,0,
-24,53,1362,-3,-1,2,-111,629,-321,265.68,-1.33,2.24,-1.2,87.82,15.56,38.6,0,0,0,0,
-24,54,1361,-2,0,0,-111,629,-321,265.68,-1.33,2.24,-1.2,87.82,15.56,38.6,0,0,0,0,
-24,54,1361,-2,0,0,-122,642,-333,265.68,-1.33,2.24,-1.2,87.82,15.56,38.6,0,0,0,0,
-24,54,1361,-2,0,0,-122,642,-333,265.68,-1.33,2.24,-1.2,87.83,15.56,38.6,0,0,0,0,
-24,54,1361,-2,0,0,-122,642,-333,265.68,-1.33,2.24,-1.2,87.83,15.56,38.6,0,0,0,0,
-24,54,1361,-2,0,0,-122,642,-333,265.68,-1.33,2.24,-1.2,87.83,15.56,38.6,0,0,0,0,
-26,51,1365,-3,0,-2,-122,642,-333,265.68,-1.33,2.24,-1.2,87.83,15.56,38.6,0,0,0,0,
-26,51,1365,-3,0,-2,-122,642,-333,265.68,-1.33,2.24,-1.2,87.83,15.56,38.6,0,0,0,0,
-26,51,1365,-3,0,-2,-122,642,-333,265.68,-1.33,2.24,-1.2,87.83,15.56,38.6,0,0,0,0,
-24,52,1365,-5,0,-1,-122,642,-333,265.68,-1.33,2.24,-1.2,87.83,15.56,38.6,0,0,0,0,
-24,52,1365,-5,0,-1,-122,642,-333,265.68,-1.33,2.24,-1.2,87.83,15.56,38.6,0,0,0,0,
-25,56,1365,-3,2,1,-122,642,-333,265.68,-1.33,2.24,-1.2,87.83,15.56,38.6,0,0,0,0,
-25,56,1365,-3,2,1,-129,643,-334,265.65,-1.33,2.24,-1.2,87.83,15.56,38.6,0,0,0,0,
-25,56,1365,-3,2,1,-129,643,-334,265.65,-1.33,2.23,-1.21,87.84,15.56,38.6,0,0,0,0,
-25,56,1365,-3,2,1,-129,643,-334,265.65,-1.33,2.23,-1.21,87.84,15.56,38.6,0,0,0,0,
-25,56,1365,-3,2,1,-129,643,-334,265.65,-1.33,2.23,-1.21,87.84,15.56,38.6,0,0,0,0,
-24,51,1365,0,0,-1,-129,643,-334,265.65,-1.33,2.23,-1.21,87.84,15.56,38.6,0,0,0,0,
-24,51,1365,0,0,-1,-129,643,-334,265.65,-1.33,2.23,-1.2,87.85,15.56,38.6,0,0,0,0,
-24,51,1365,0,0,-1,-129,643,-334,265.65,-1.33,2.23,-1.2,87.85,15.56,38.6,0,0,0,0,
-27,55,1365,0,1,1,-129,643,-334,265.65,-1.33,2.23,-1.2,87.85,15.56,38.6,0,0,0,0,
-27,55,1365,0,1,1,-122,638,-343,265.66,-1.33,2.23,-1.2,87.85,15.56,38.6,0,0,0,0,
-27,55,1365,0,1,1,-122,638,-343,265.66,-1.33,2.23,-1.2,87.85,15.56,38.6,0,0,0,0,
-27,55,1365,0,1,1,-122,638,-343,265.66,-1.33,2.23,-1.2,87.85,15.56,38.6,0,0,0,0,
-27,55,1365,0,1,1,-122,638,-343,265.66,-1.33,2.23,-1.2,87.85,15.56,38.6,0,0,0,0,
-23,51,1366,-3,0,0,-122,638,-343,265.66,-1.33,2.23,-1.2,87.85,15.56,38.6,0,0,0,0,
-23,51,1366,-3,0,0,-122,638,-343,265.66,-1.33,2.23,-1.2,87.86,15.56,38.6,0,0,0,0,
-23,51,1366,-3,0,0,-122,638,-343,265.66,-1.33,2.23,-1.2,87.86,15.56,38.6,0,0,0,0,
-27,50,1364,0,2,2,-122,638,-343,265.66,-1.33,2.23,-1.2,87.86,15.56,38.6,0,0,0,0,
-27,50,1364,0,2,2,-122,638,-343,265.66,-1.33,2.23,-1.2,87.86,15.56,38.6,0,0,0,0,
-23,56,1369,-1,0,3,-122,638,-343,265.66,-1.33,2.23,-1.2,87.86,15.56,38.6,0,0,0,0,
-23,56,1369,-1,0,3,-125,646,-341,265.65,-1.33,2.23,-1.2,87.86,15.56,38.6,0,0,0,0,
-23,56,1369,-1,0,3,-125,646,-341,265.65,-1.33,2.23,-1.2,87.87,15.56,38.6,0,0,0,0,
-23,56,1369,-1,0,3,-125,646,-341,265.65,-1.33,2.23,-1.2,87.87,15.56,38.6,0,0,0,0,
-23,56,1369,-1,0,3,-125,646,-341,265.65,-1.33,2.23,-1.2,87.87,15.56,38.6,0,0,0,0,
-26,52,1364,-2,0,-1,-125,646,-341,265.65,-1.33,2.23,-1.2,87.87,15.56,38.6,0,0,0,0,
-26,52,1364,-2,0,-1,-125,646,-341,265.65,-1.33,2.23,-1.2,87.87,15.56,38.6,0,0,0,0,
-26,52,1364,-2,0,-1,-125,646,-341,265.65,-1.33,2.23,-1.2,87.87,15.56,38.6,0,0,0,0,
-25,53,1366,0,2,0,-125,646,-341,265.65,-1.33,2.23,-1.2,87.87,15.56,38.6,0,0,0,0,
-25,53,1366,0,2,0,-113,634,-332,265.65,-1.33,2.23,-1.2,87.87,15.56,38.6,0,0,0,0,
-25,53,1366,0,2,0,-113,634,-332,265.65,-1.33,2.23,-1.2,87.88,15.56,38.6,0,0,0,0,
-25,53,1366,0,2,0,-113,634,-332,265.65,-1.34,2.23,-1.2,87.88,15.56,38.6,0,0,0,0,
-25,53,1366,0,2,0,-113,634,-332,265.65,-1.34,2.23,-1.2,87.88,15.56,38.6,0,0,0,0,
-26,52,1365,0,0,0,-113,634,-332,265.65,-1.34,2.23,-1.2,87.88,15.56,38.6,0,0,0,0,
-26,52,1365,0,0,0,-113,634,-332,265.65,-1.34,2.23,-1.2,87.88,15.56,38.6,0,0,0,0,
-26,52,1365,0,0,0,-113,634,-332,265.65,-1.34,2.23,-1.2,87.88,15.56,38.6,0,0,0,0,
-28,54,1364,-5,-1,-1,-113,634,-332,265.65,-1.34,2.23,-1.2,87.88,15.56,38.6,0,0,0,0,
-28,54,1364,-5,-1,-1,-113,634,-332,265.65,-1.34,2.23,-1.2,87.88,15.56,38.6,0,0,0,0,
-24,53,1362,-2,-1,0,-113,634,-332,265.65,-1.34,2.23,-1.2,87.88,15.56,38.6,0,0,0,0,
-24,53,1362,-2,-1,0,-108,633,-340,265.65,-1.34,2.23,-1.2,87.88,15.56,38.6,0,0,0,0,
-24,53,1362,-2,-1,0,-108,633,-340,265.65,-1.34,2.23,-1.2,87.89,15.56,38.6,0,0,0,0,
-24,53,1362,-2,-1,0,-108,633,-340,265.65,-1.34,2.23,-1.2,87.89,15.56,38.6,0,0,0,0,
-24,53,1362,-2,-1,0,-108,633,-340,265.65,-1.34,2.23,-1.2,87.89,15.56,38.6,0,0,0,0,
-24,53,1362,-2,-1,0,-108,633,-340,265.65,-1.34,2.23,-1.2,87.89,15.56,38.6,0,0,0,0,
-24,55,1365,-1,0,0,-108,633,-340,265.65,-1.34,2.23,-1.2,87.89,15.56,38.6,0,0,0,0,
-24,55,1365,-1,0,0,-108,633,-340,265.65,-1.34,2.23,-1.2,87.9,15.56,38.6,0,0,0,0,
-24,55,1365,-1,0,0,-108,633,-340,265.65,-1.34,2.23,-1.2,87.9,15.56,38.6,0,0,0,0,
-24,52,1363,1,0,0,-108,633,-340,265.65,-1.34,2.23,-1.2,87.9,15.56,38.6,0,0,0,0,
-24,52,1363,1,0,0,-137,656,-338,265.64,-1.34,2.23,-1.2,87.9,15.56,38.6,0,0,0,0,
-24,52,1363,1,0,0,-137,656,-338,265.64,-1.34,2.23,-1.2,87.91,15.56,38.6,0,0,0,0,
-24,52,1363,1,0,0,-137,656,-338,265.64,-1.34,2.23,-1.2,87.91,15.56,38.6,0,0,0,0,
-24,52,1363,1,0,0,-137,656,-338,265.64,-1.34,2.23,-1.2,87.91,15.56,38.6,0,0,0,0,
-26,54,1363,-2,0,-2,-137,656,-338,265.64,-1.34,2.23,-1.2,87.91,15.56,38.6,0,0,0,0,
-26,54,1363,-2,0,-2,-137,656,-338,265.64,-1.34,2.22,-1.2,87.92,15.56,38.6,0,0,0,0,
-26,54,1363,-2,0,-2,-137,656,-338,265.64,-1.34,2.22,-1.2,87.92,15.56,38.6,0,0,0,0,
-28,54,1368,-1,-2,0,-137,656,-338,265.64,-1.34,2.22,-1.2,87.92,15.56,38.6,0,0,0,0,
-28,54,1368,-1,-2,0,-137,656,-338,265.64,-1.34,2.22,-1.2,87.92,15.56,38.6,0,0,0,0,
-23,51,1365,-2,0,-1,-137,656,-338,265.64,-1.34,2.22,-1.2,87.92,15.56,38.6,0,0,0,0,
-23,51,1365,-2,0,-1,-138,653,-347,265.64,-1.34,2.22,-1.2,87.92,15.56,38.6,0,0,0,0,
-23,51,1365,-2,0,-1,-138,653,-347,265.64,-1.34,2.22,-1.2,87.92,15.56,38.6,0,0,0,0,
-23,51,1365,-2,0,-1,-138,653,-347,265.64,-1.34,2.22,-1.2,87.92,15.56,38.6,0,0,0,0,
-23,51,1365,-2,0,-1,-138,653,-347,265.64,-1.34,2.22,-1.2,87.92,15.56,38.6,0,0,0,0,
-24,53,1368,-4,0,0,-138,653,-347,265.64,-1.34,2.22,-1.2,87.92,15.56,38.6,0,0,0,0,
-24,53,1368,-4,0,0,-138,653,-347,265.64,-1.34,2.22,-1.2,87.93,15.56,38.6,0,0,0,0,
-24,53,1368,-4,0,0,-138,653,-347,265.64,-1.34,2.22,-1.2,87.93,15.56,38.6,0,0,0,0,
-26,53,1365,3,0,1,-138,653,-347,265.64,-1.34,2.22,-1.2,87.93,15.56,38.6,0,0,0,0,
-26,53,1365,3,0,1,-135,655,-335,265.63,-1.34,2.22,-1.2,87.93,15.56,38.6,0,0,0,0,
-26,53,1365,3,0,1,-135,655,-335,265.63,-1.34,2.22,-1.2,87.94,15.56,38.6,0,0,0,0,
-26,53,1365,3,0,1,-135,655,-335,265.63,-1.34,2.22,-1.2,87.94,15.56,38.6,0,0,0,0,
-26,53,1365,3,0,1,-135,655,-335,265.63,-1.34,2.22,-1.2,87.94,15.56,38.6,0,0,0,0,
-24,54,1367,-3,4,0,-135,655,-335,265.63,-1.34,2.22,-1.2,87.94,15.56,38.6,0,0,0,0,
-24,54,1367,-3,4,0,-135,655,-335,265.63,-1.34,2.22,-1.2,87.94,15.56,38.6,0,0,0,0,
-24,54,1367,-3,4,0,-135,655,-335,265.63,-1.34,2.22,-1.2,87.94,15.56,38.6,0,0,0,0,
-25,53,1365,-1,1,1,-135,655,-335,265.63,-1.34,2.22,-1.2,87.94,15.56,38.6,0,0,0,0,
-25,53,1365,-1,1,1,-135,655,-335,265.63,-1.34,2.22,-1.2,87.94,15.56,38.6,0,0,0,0,
-28,51,1363,0,0,-1,-135,655,-335,265.63,-1.34,2.22,-1.2,87.94,15.56,38.6,0,0,0,0,
-28,51,1363,0,0,-1,-139,657,-338,265.66,-1.34,2.22,-1.2,87.94,15.56,38.6,0,0,0,0,
-28,51,1363,0,0,-1,-139,657,-338,265.66,-1.34,2.22,-1.2,87.95,15.56,38.6,0,0,0,0,
-28,51,1363,0,0,-1,-139,657,-338,265.66,-1.34,2.22,-1.2,87.95,15.56,38.6,0,0,0,0,
-28,51,1363,0,0,-1,-139,657,-338,265.66,-1.34,2.22,-1.2,87.95,15.56,38.6,0,0,0,0,
-24,54,1365,0,0,0,-139,657,-338,265.66,-1.34,2.22,-1.2,87.95,15.56,38.6,0,0,0,0,
-24,54,1365,0,0,0,-139,657,-338,265.66,-1.34,2.22,-1.2,87.96,15.56,38.6,0,0,0,0,
-24,54,1365,0,0,0,-139,657,-338,265.66,-1.34,2.22,-1.2,87.96,15.56,38.6,0,0,0,0,
-25,50,1365,0,2,0,-139,657,-338,265.66,-1.34,2.22,-1.2,87.96,15.56,38.6,0,0,0,0,
-25,50,1365,0,2,0,-118,632,-329,265.66,-1.34,2.22,-1.2,87.96,15.56,38.6,0,0,0,0,
-25,50,1365,0,2,0,-118,632,-329,265.66,-1.34,2.22,-1.2,87.96,15.56,38.6,0,0,0,0,
-25,50,1365,0,2,0,-118,632,-329,265.66,-1.34,2.22,-1.2,87.96,15.56,38.6,0,0,0,0,
-25,50,1365,0,2,0,-118,632,-329,265.66,-1.34,2.22,-1.2,87.96,15.56,38.6,0,0,0,0,
-24,53,1365,0,0,0,-118,632,-329,265.66,-1.34,2.22,-1.2,87.96,15.56,38.6,0,0,0,0,
-24,53,1365,0,0,0,-118,632,-329,265.66,-1.34,2.22,-1.2,87.97,15.56,38.6,0,0,0,0,
-24,53,1365,0,0,0,-118,632,-329,265.66,-1.34,2.22,-1.2,87.97,15.56,38.6,0,0,0,0,
-25,55,1365,1,0,0,-118,632,-329,265.66,-1.34,2.22,-1.2,87.97,15.56,38.6,0,0,0,0,
-25,55,1365,1,0,0,-118,632,-329,265.66,-1.34,2.22,-1.2,87.97,15.56,38.6,0,0,0,0,
-24,54,1363,1,-1,1,-118,632,-329,265.66,-1.34,2.22,-1.2,87.97,15.56,38.6,0,0,0,0,
-24,54,1363,1,-1,1,-110,637,-334,265.64,-1.34,2.22,-1.2,87.97,15.56,38.6,0,0,0,0,
-24,54,1363,1,-1,1,-110,637,-334,265.64,-1.34,2.22,-1.2,87.98,15.56,38.6,0,0,0,0,
-24,54,1363,1,-1,1,-110,637,-334,265.64,-1.34,2.22,-1.2,87.98,15.56,38.6,0,0,0,0,
-24,54,1363,1,-1,1,-110,637,-334,265.64,-1.34,2.22,-1.2,87.98,15.56,38.6,0,0,0,0,
-24,54,1363,1,-1,1,-110,637,-334,265.64,-1.34,2.22,-1.2,87.98,15.56,38.6,0,0,0,0,
-23,57,1365,-3,-1,2,-110,637,-334,265.64,-1.34,2.22,-1.2,87.98,15.56,38.6,0,0,0,0,
-23,57,1365,-3,-1,2,-110,637,-334,265.64,-1.34,2.23,-1.2,87.98,15.56,38.6,0,0,0,0,
-23,57,1365,-3,-1,2,-110,637,-334,265.64,-1.34,2.23,-1.2,87.98,15.56,38.6,0,0,0,0,
-24,51,1363,0,-2,2,-110,637,-334,265.64,-1.34,2.23,-1.2,87.98,15.56,38.6,0,0,0,0,
-24,51,1363,0,-2,2,-108,628,-344,265.64,-1.34,2.23,-1.2,87.98,15.56,38.6,0,0,0,0,
-24,51,1363,0,-2,2,-108,628,-344,265.64,-1.34,2.23,-1.2,87.99,15.56,38.6,0,0,0,0,
-24,51,1363,0,-2,2,-108,628,-344,265.64,-1.34,2.23,-1.2,87.99,15.56,38.6,0,0,0,0,
-24,51,1363,0,-2,2,-108,628,-344,265.64,-1.34,2.23,-1.2,87.99,15.56,38.6,0,0,0,0,
-30,55,1365,-1,0,1,-108,628,-344,265.64,-1.34,2.23,-1.2,87.99,15.56,38.6,0,0,0,0,
-30,55,1365,-1,0,1,-108,628,-344,265.64,-1.34,2.23,-1.2,87.99,15.56,38.6,0,0,0,0,
-30,55,1365,-1,0,1,-108,628,-344,265.64,-1.34,2.23,-1.2,87.99,15.56,38.6,0,0,0,0,
-25,56,1366,-1,1,0,-108,628,-344,265.64,-1.34,2.23,-1.2,87.99,15.56,38.6,0,0,0,0,
-25,56,1366,-1,1,0,-108,628,-344,265.64,-1.34,2.23,-1.2,87.99,15.56,38.6,0,0,0,0,
-24,52,1365,0,1,2,-108,628,-344,265.64,-1.34,2.23,-1.2,87.99,15.56,38.6,0,0,0,0,
-24,52,1365,0,1,2,-114,629,-334,265.64,-1.34,2.23,-1.2,87.99,15.56,38.6,0,0,0,0,
-24,52,1365,0,1,2,-114,629,-334,265.64,-1.34,2.23,-1.2,88,15.56,38.6,0,0,0,0,
-24,52,1365,0,1,2,-114,629,-334,265.64,-1.34,2.23,-1.2,88,15.56,38.6,0,0,0,0,
-24,52,1365,0,1,2,-114,629,-334,265.64,-1.34,2.23,-1.2,88,15.56,38.6,0,0,0,0,
-25,50,1365,-5,0,0,-114,629,-334,265.64,-1.34,2.23,-1.2,88,15.56,38.6,0,0,0,0,
-25,50,1365,-5,0,0,-114,629,-334,265.64,-1.34,2.22,-1.2,88.01,15.56,38.6,0,0,0,0,
-25,50,1365,-5,0,0,-114,629,-334,265.64,-1.34,2.22,-1.2,88.01,15.56,38.6,0,0,0,0,
-24,53,1368,2,-1,1,-114,629,-334,265.64,-1.34,2.22,-1.2,88.01,15.56,38.6,0,0,0,0,
-24,53,1368,2,-1,1,-112,634,-338,265.62,-1.34,2.22,-1.2,88.01,15.56,38.6,0,0,0,0,
-24,53,1368,2,-1,1,-112,634,-338,265.62,-1.34,2.22,-1.2,88.01,15.56,38.6,0,0,0,0,
-24,53,1368,2,-1,1,-112,634,-338,265.62,-1.34,2.22,-1.2,88.01,15.56,38.6,0,0,0,0,
-24,53,1368,2,-1,1,-112,634,-338,265.62,-1.34,2.22,-1.2,88.01,15.56,38.6,0,0,0,0,
-26,49,1365,0,0,0,-112,634,-338,265.62,-1.34,2.22,-1.2,88.01,15.56,38.6,0,0,0,0,
-26,49,1365,0,0,0,-112,634,-338,265.62,-1.34,2.22,-1.2,88.02,15.56,38.6,0,0,0,0,
-26,49,1365,0,0,0,-112,634,-338,265.62,-1.34,2.22,-1.2,88.02,15.56,38.6,0,0,0,0,
-25,55,1366,-1,1,1,-112,634,-338,265.62,-1.34,2.22,-1.2,88.02,15.56,38.6,0,0,0,0,
-25,55,1366,-1,1,1,-112,634,-338,265.62,-1.34,2.22,-1.2,88.02,15.56,38.6,0,0,0,0,
-25,54,1359,2,3,2,-112,634,-338,265.62,-1.34,2.22,-1.2,88.02,15.56,38.6,0,0,0,0,
-25,54,1359,2,3,2,-108,634,-337,265.62,-1.34,2.22,-1.2,88.02,15.56,38.6,0,0,0,0,
-25,54,1359,2,3,2,-108,634,-337,265.62,-1.34,2.22,-1.2,88.03,15.56,38.6,0,0,0,0,
-25,54,1359,2,3,2,-108,634,-337,265.62,-1.34,2.22,-1.2,88.03,15.56,38.6,0,0,0,0,
-25,54,1359,2,3,2,-108,634,-337,265.62,-1.34,2.22,-1.2,88.03,15.56,38.6,0,0,0,0,
-26,52,1364,0,2,0,-108,634,-337,265.62,-1.34,2.22,-1.2,88.03,15.56,38.6,0,0,0,0,
-26,52,1364,0,2,0,-108,634,-337,265.62,-1.34,2.22,-1.21,88.03,15.56,38.6,0,0,0,0,
-26,52,1364,0,2,0,-108,634,-337,265.62,-1.34,2.22,-1.21,88.03,15.56,38.6,0,0,0,0,
-24,53,1364,0,2,1,-108,634,-337,265.62,-1.34,2.22,-1.21,88.03,15.56,38.6,0,0,0,0,
-24,53,1364,0,2,1,-113,634,-339,265.64,-1.34,2.22,-1.21,88.03,15.56,38.6,0,0,0,0,
-24,53,1364,0,2,1,-113,634,-339,265.64,-1.34,2.23,-1.21,88.04,15.56,38.6,0,0,0,0,
-24,53,1364,0,2,1,-113,634,-339,265.64,-1.34,2.23,-1.21,88.04,15.56,38.6,0,0,0,0,
-24,53,1364,0,2,1,-113,634,-339,265.64,-1.34,2.23,-1.21,88.04,15.56,38.6,0,0,0,0,
-23,53,1362,0,-2,-1,-113,634,-339,265.64,-1.34,2.23,-1.21,88.04,15.56,38.6,0,0,0,0,
-23,53,1362,0,-2,-1,-113,634,-339,265.64,-1.34,2.23,-1.21,88.05,15.56,38.6,0,0,0,0,
-23,53,1362,0,-2,-1,-113,634,-339,265.64,-1.34,2.23,-1.21,88.05,15.56,38.6,0,0,0,0,
-26,54,1366,-2,0,0,-113,634,-339,265.64,-1.34,2.23,-1.21,88.05,15.56,38.6,0,0,0,0,
-26,54,1366,-2,0,0,-113,634,-339,265.64,-1.34,2.23,-1.21,88.05,15.56,38.6,0,0,0,0,
-26,55,1363,-3,-2,-1,-113,634,-339,265.64,-1.34,2.23,-1.21,88.05,15.56,38.6,0,0,0,0,
-26,55,1363,-3,-2,-1,-111,633,-331,265.63,-1.34,2.23,-1.21,88.05,15.56,38.6,0,0,0,0,
-26,55,1363,-3,-2,-1,-111,633,-331,265.63,-1.34,2.23,-1.2,88.05,15.56,38.6,0,0,0,0,
-26,55,1363,-3,-2,-1,-111,633,-331,265.63,-1.35,2.23,-1.2,88.05,15.56,38.6,0,0,0,0,
-26,55,1363,-3,-2,-1,-111,633,-331,265.63,-1.35,2.23,-1.2,88.05,15.56,38.6,0,0,0,0,
-26,55,1363,-3,-2,-1,-111,633,-331,265.63,-1.35,2.23,-1.2,88.05,15.56,38.6,0,0,0,0,
-24,53,1366,2,2,0,-111,633,-331,265.63,-1.35,2.23,-1.2,88.05,15.56,38.6,0,0,0,0,
-24,53,1366,2,2,0,-111,633,-331,265.63,-1.35,2.23,-1.21,88.06,15.56,38.6,0,0,0,0,
-24,53,1366,2,2,0,-111,633,-331,265.63,-1.35,2.23,-1.21,88.06,15.56,38.6,0,0,0,0,
-26,51,1361,-1,0,2,-111,633,-331,265.63,-1.35,2.23,-1.21,88.06,15.56,38.6,0,0,0,0,
-26,51,1361,-1,0,2,-114,634,-324,265.63,-1.35,2.23,-1.21,88.06,15.56,38.6,0,0,0,0,
-26,51,1361,-1,0,2,-114,634,-324,265.63,-1.35,2.23,-1.21,88.06,15.56,38.6,0,0,0,0,
-26,51,1361,-1,0,2,-114,634,-324,265.63,-1.35,2.23,-1.21,88.06,15.56,38.6,0,0,0,0,
-26,51,1361,-1,0,2,-114,634,-324,265.63,-1.35,2.23,-1.21,88.06,15.56,38.6,0,0,0,0,
-24,53,1365,0,0,-1,-114,634,-324,265.63,-1.35,2.23,-1.21,88.06,15.56,38.6,0,0,0,0,
-24,53,1365,0,0,-1,-114,634,-324,265.63,-1.35,2.23,-1.21,88.07,15.56,38.6,0,0,0,0,
-24,53,1365,0,0,-1,-114,634,-324,265.63,-1.35,2.23,-1.21,88.07,15.56,38.6,0,0,0,0,
-25,53,1365,0,2,0,-114,634,-324,265.63,-1.35,2.23,-1.21,88.07,15.56,38.6,0,0,0,0,
-25,53,1365,0,2,0,-114,634,-324,265.63,-1.35,2.23,-1.21,88.07,15.56,38.6,0,0,0,0,
-25,52,1367,-2,0,0,-114,634,-324,265.63,-1.35,2.23,-1.21,88.07,15.56,38.6,0,0,0,0,
-25,52,1367,-2,0,0,-110,633,-339,265.67,-1.35,2.23,-1.21,88.07,15.56,38.6,0,0,0,0,
-25,52,1367,-2,0,0,-110,633,-339,265.67,-1.35,2.23,-1.21,88.08,15.56,38.6,0,0,0,0,
-25,52,1367,-2,0,0,-110,633,-339,265.67,-1.35,2.23,-1.21,88.08,15.56,38.6,0,0,0,0,
-25,52,1367,-2,0,0,-110,633,-339,265.67,-1.35,2.23,-1.21,88.08,15.56,38.6,0,0,0,0,
-27,54,1364,0,0,-3,-110,633,-339,265.67,-1.35,2.23,-1.21,88.08,15.56,38.6,0,0,0,0,
-27,54,1364,0,0,-3,-110,633,-339,265.67,-1.35,2.23,-1.21,88.08,15.56,38.6,0,0,0,0,
-27,54,1364,0,0,-3,-110,633,-339,265.67,-1.35,2.23,-1.21,88.08,15.56,38.6,0,0,0,0,
-22,54,1363,-1,0,0,-110,633,-339,265.67,-1.35,2.23,-1.21,88.08,15.56,38.6,0,0,0,0,
-22,54,1363,-1,0,0,-116,634,-333,265.62,-1.35,2.23,-1.21,88.08,15.56,38.6,0,0,0,0,
-22,54,1363,-1,0,0,-116,634,-333,265.62,-1.35,2.23,-1.21,88.09,15.56,38.6,0,0,0,0,
-22,54,1363,-1,0,0,-116,634,-333,265.62,-1.35,2.23,-1.21,88.09,15.56,38.6,0,0,0,0,
-22,54,1363,-1,0,0,-116,634,-333,265.62,-1.35,2.23,-1.21,88.09,15.56,38.6,0,0,0,0,
-29,55,1365,-1,1,0,-116,634,-333,265.62,-1.35,2.23,-1.21,88.09,15.56,38.6,0,0,0,0,
-29,55,1365,-1,1,0,-116,634,-333,265.62,-1.35,2.23,-1.21,88.09,15.56,38.6,0,0,0,0,
-29,55,1365,-1,1,0,-116,634,-333,265.62,-1.35,2.23,-1.21,88.09,15.56,38.6,0,0,0,0,
-24,55,1365,-4,1,0,-116,634,-333,265.62,-1.35,2.23,-1.21,88.09,15.56,38.6,0,0,0,0,
-24,55,1365,-4,1,0,-116,634,-333,265.62,-1.35,2.23,-1.21,88.09,15.56,38.6,0,0,0,0,
-23,55,1364,-1,-2,2,-116,634,-333,265.62,-1.35,2.23,-1.21,88.09,15.56,38.6,0,0,0,0,
-23,55,1364,-1,-2,2,-113,628,-336,265.64,-1.35,2.23,-1.21,88.09,15.56,38.6,0,0,0,0,
-23,55,1364,-1,-2,2,-113,628,-336,265.64,-1.35,2.23,-1.21,88.1,15.56,38.6,0,0,0,0,
-23,55,1364,-1,-2,2,-113,628,-336,265.64,-1.35,2.23,-1.21,88.1,15.56,38.6,0,0,0,0,
-23,55,1364,-1,-2,2,-113,628,-336,265.64,-1.35,2.23,-1.21,88.1,15.56,38.6,0,0,0,0,
-27,53,1369,0,-1,1,-113,628,-336,265.64,-1.35,2.23,-1.21,88.1,15.56,38.6,0,0,0,0,
-27,53,1369,0,-1,1,-113,628,-336,265.64,-1.35,2.23,-1.21,88.11,15.56,38.6,0,0,0,0,
-27,53,1369,0,-1,1,-113,628,-336,265.64,-1.35,2.23,-1.21,88.11,15.56,38.6,0,0,0,0,
-27,54,1363,-1,0,1,-113,628,-336,265.64,-1.35,2.23,-1.21,88.11,15.56,38.6,0,0,0,0,
-27,54,1363,-1,0,1,-123,644,-335,265.67,-1.35,2.23,-1.21,88.11,15.56,38.6,0,0,0,0,
-27,54,1363,-1,0,1,-123,644,-335,265.67,-1.35,2.23,-1.21,88.11,15.56,38.6,0,0,0,0,
-27,54,1363,-1,0,1,-123,644,-335,265.67,-1.35,2.23,-1.21,88.11,15.56,38.6,0,0,0,0,
-27,54,1363,-1,0,1,-123,644,-335,265.67,-1.35,2.23,-1.21,88.11,15.56,38.6,0,0,0,0,
-25,50,1367,0,-1,0,-123,644,-335,265.67,-1.35,2.23,-1.21,88.11,15.56,38.6,0,0,0,0,
-25,50,1367,0,-1,0,-123,644,-335,265.67,-1.35,2.23,-1.21,88.12,15.56,38.6,0,0,0,0,
-25,50,1367,0,-1,0,-123,644,-335,265.67,-1.35,2.23,-1.21,88.12,15.56,38.6,0,0,0,0,
-24,49,1365,-2,0,-2,-123,644,-335,265.67,-1.35,2.23,-1.21,88.12,15.56,38.6,0,0,0,0,
-24,49,1365,-2,0,-2,-123,644,-335,265.67,-1.35,2.23,-1.21,88.12,15.56,38.6,0,0,0,0,
-25,52,1362,-1,2,2,-123,644,-335,265.67,-1.35,2.23,-1.21,88.12,15.56,38.6,0,0,0,0,
-25,52,1362,-1,2,2,-125,645,-345,265.65,-1.35,2.23,-1.21,88.12,15.56,38.6,0,0,0,0,
-25,52,1362,-1,2,2,-125,645,-345,265.65,-1.35,2.23,-1.21,88.13,15.56,38.6,0,0,0,0,
-25,52,1362,-1,2,2,-125,645,-345,265.65,-1.35,2.23,-1.21,88.13,15.56,38.6,0,0,0,0,
-25,52,1362,-1,2,2,-125,645,-345,265.65,-1.35,2.23,-1.21,88.13,15.55,38.6,0,0,0,0,
-25,52,1362,-1,2,2,-125,645,-345,265.65,-1.35,2.23,-1.21,88.13,15.55,38.6,0,0,0,0,
-23,54,1364,0,1,0,-125,645,-345,265.65,-1.35,2.23,-1.21,88.13,15.55,38.6,0,0,0,0,
-23,54,1364,0,1,0,-125,645,-345,265.65,-1.35,2.23,-1.21,88.13,15.55,38.6,0,0,0,0,
-23,54,1364,0,1,0,-125,645,-345,265.65,-1.35,2.23,-1.21,88.13,15.55,38.6,0,0,0,0,
-26,55,1366,4,1,0,-125,645,-345,265.65,-1.35,2.23,-1.21,88.13,15.55,38.6,0,0,0,0,
-26,55,1366,4,1,0,-123,638,-336,265.65,-1.35,2.23,-1.21,88.13,15.55,38.6,0,0,0,0,
-26,55,1366,4,1,0,-123,638,-336,265.65,-1.35,2.23,-1.21,88.14,15.55,38.6,0,0,0,0,
-26,55,1366,4,1,0,-123,638,-336,265.65,-1.35,2.23,-1.21,88.14,15.55,38.6,0,0,0,0,
-26,55,1366,4,1,0,-123,638,-336,265.65,-1.35,2.23,-1.21,88.14,15.55,38.6,0,0,0,0,
-24,55,1364,0,1,-1,-123,638,-336,265.65,-1.35,2.23,-1.21,88.14,15.55,38.6,0,0,0,0,
-24,55,1364,0,1,-1,-123,638,-336,265.65,-1.35,2.23,-1.21,88.14,15.55,38.6,0,0,0,0,
-24,55,1364,0,1,-1,-123,638,-336,265.65,-1.35,2.23,-1.21,88.14,15.55,38.6,0,0,0,0,
-26,49,1361,-1,0,1,-123,638,-336,265.65,-1.35,2.23,-1.21,88.14,15.55,38.6,0,0,0,0,
-26,49,1361,-1,0,1,-123,638,-336,265.65,-1.35,2.23,-1.21,88.14,15.55,38.6,0,0,0,0,
-26,53,1363,-1,3,1,-123,638,-336,265.65,-1.35,2.23,-1.21,88.14,15.55,38.6,0,0,0,0,
-26,53,1363,-1,3,1,-125,642,-329,265.64,-1.35,2.23,-1.21,88.14,15.55,38.6,0,0,0,0,
-26,53,1363,-1,3,1,-125,642,-329,265.64,-1.35,2.23,-1.21,88.15,15.55,38.6,0,0,0,0,
-26,53,1363,-1,3,1,-125,642,-329,265.64,-1.35,2.23,-1.21,88.15,15.55,38.6,0,0,0,0,
-26,53,1363,-1,3,1,-125,642,-329,265.64,-1.35,2.23,-1.21,88.15,15.55,38.6,0,0,0,0,
-21,52,1363,-3,0,2,-125,642,-329,265.64,-1.35,2.23,-1.21,88.15,15.55,38.6,0,0,0,0,
-21,52,1363,-3,0,2,-125,642,-329,265.64,-1.35,2.23,-1.21,88.15,15.55,38.6,0,0,0,0,
-21,52,1363,-3,0,2,-125,642,-329,265.64,-1.35,2.23,-1.21,88.15,15.55,38.6,0,0,0,0,
-27,54,1364,0,0,0,-125,642,-329,265.64,-1.35,2.23,-1.21,88.15,15.55,38.6,0,0,0,0,
-27,54,1364,0,0,0,-126,644,-331,265.64,-1.35,2.23,-1.21,88.15,15.55,38.6,0,0,0,0,
-27,54,1364,0,0,0,-126,644,-331,265.64,-1.35,2.22,-1.21,88.16,15.55,38.6,0,0,0,0,
-27,54,1364,0,0,0,-126,644,-331,265.64,-1.35,2.22,-1.21,88.16,15.55,38.6,0,0,0,0,
-27,54,1364,0,0,0,-126,644,-331,265.64,-1.35,2.22,-1.21,88.16,15.55,38.6,0,0,0,0,
-23,53,1364,-3,1,1,-126,644,-331,265.64,-1.35,2.22,-1.21,88.16,15.55,38.6,0,0,0,0,
-23,53,1364,-3,1,1,-126,644,-331,265.64,-1.35,2.22,-1.21,88.16,15.55,38.6,0,0,0,0,
-23,53,1364,-3,1,1,-126,644,-331,265.64,-1.35,2.22,-1.21,88.16,15.55,38.6,0,0,0,0,
-23,51,1367,-3,0,-1,-126,644,-331,265.64,-1.35,2.22,-1.21,88.16,15.55,38.6,0,0,0,0,
-23,51,1367,-3,0,-1,-126,644,-331,265.64,-1.35,2.22,-1.21,88.16,15.55,38.6,0,0,0,0,
-23,53,1363,-3,1,-1,-126,644,-331,265.64,-1.35,2.22,-1.21,88.16,15.55,38.6,0,0,0,0,
-23,53,1363,-3,1,-1,-123,642,-335,265.66,-1.35,2.22,-1.21,88.16,15.55,38.6,0,0,0,0,
-23,53,1363,-3,1,-1,-123,642,-335,265.66,-1.35,2.22,-1.21,88.17,15.55,38.6,0,0,0,0,
-23,53,1363,-3,1,-1,-123,642,-335,265.66,-1.35,2.22,-1.21,88.17,15.55,38.6,0,0,0,0,
-23,53,1363,-3,1,-1,-123,642,-335,265.66,-1.35,2.22,-1.21,88.17,15.55,38.6,0,0,0,0,
-25,53,1366,0,0,0,-123,642,-335,265.66,-1.35,2.22,-1.21,88.17,15.55,38.6,0,0,0,0,
-25,53,1366,0,0,0,-123,642,-335,265.66,-1.35,2.22,-1.21,88.18,15.55,38.6,0,0,0,0,
-25,53,1366,0,0,0,-123,642,-335,265.66,-1.35,2.22,-1.21,88.18,15.55,38.6,0,0,0,0,
-23,54,1365,0,0,2,-123,642,-335,265.66,-1.35,2.22,-1.21,88.18,15.55,38.6,0,0,0,0,
-23,54,1365,0,0,2,-123,646,-340,265.65,-1.35,2.22,-1.21,88.18,15.55,38.6,0,0,0,0,
-23,54,1365,0,0,2,-123,646,-340,265.65,-1.35,2.22,-1.21,88.18,15.55,38.6,0,0,0,0,
-23,54,1365,0,0,2,-123,646,-340,265.65,-1.35,2.22,-1.21,88.18,15.55,38.6,0,0,0,0,
-23,54,1365,0,0,2,-123,646,-340,265.65,-1.35,2.22,-1.21,88.18,15.55,38.6,0,0,0,0,
-23,54,1367,-2,0,0,-123,646,-340,265.65,-1.35,2.22,-1.21,88.18,15.55,38.6,0,0,0,0,
-23,54,1367,-2,0,0,-123,646,-340,265.65,-1.35,2.22,-1.21,88.19,15.55,38.6,0,0,0,0,
-23,54,1367,-2,0,0,-123,646,-340,265.65,-1.35,2.22,-1.21,88.19,15.55,38.6,0,0,0,0,
-24,51,1367,2,0,0,-123,646,-340,265.65,-1.35,2.22,-1.21,88.19,15.55,38.6,0,0,0,0,
-24,51,1367,2,0,0,-123,646,-340,265.65,-1.35,2.22,-1.21,88.19,15.55,38.6,0,0,0,0,
-27,57,1364,-4,0,-1,-123,646,-340,265.65,-1.35,2.22,-1.21,88.19,15.55,38.6,0,0,0,0,
-27,57,1364,-4,0,-1,-123,638,-330,265.66,-1.35,2.22,-1.21,88.19,15.55,38.6,0,0,0,0,
-27,57,1364,-4,0,-1,-123,638,-330,265.66,-1.35,2.22,-1.21,88.19,15.55,38.6,0,0,0,0,
-27,57,1364,-4,0,-1,-123,638,-330,265.66,-1.35,2.22,-1.21,88.19,15.55,38.6,0,0,0,0,
-27,57,1364,-4,0,-1,-123,638,-330,265.66,-1.35,2.22,-1.21,88.19,15.55,38.6,0,0,0,0,
-27,57,1364,-4,0,-1,-123,638,-330,265.66,-1.35,2.22,-1.21,88.19,15.55,38.6,0,0,0,0,
-23,50,1362,3,0,-1,-123,638,-330,265.66,-1.35,2.22,-1.21,88.19,15.55,38.6,0,0,0,0,
-23,50,1362,3,0,-1,-123,638,-330,265.66,-1.35,2.23,-1.21,88.2,15.55,38.6,0,0,0,0,
-23,50,1362,3,0,-1,-123,638,-330,265.66,-1.35,2.23,-1.21,88.2,15.55,38.6,0,0,0,0,
-26,52,1368,-2,0,-1,-123,638,-330,265.66,-1.35,2.23,-1.21,88.2,15.55,38.6,0,0,0,0,
-26,52,1368,-2,0,-1,-126,647,-334,265.63,-1.35,2.23,-1.21,88.2,15.55,38.6,0,0,0,0,
-26,52,1368,-2,0,-1,-126,647,-334,265.63,-1.35,2.22,-1.21,88.21,15.55,38.6,0,0,0,0,
-26,52,1368,-2,0,-1,-126,647,-334,265.63,-1.35,2.22,-1.21,88.21,15.55,38.6,0,0,0,0,
-26,52,1368,-2,0,-1,-126,647,-334,265.63,-1.35,2.22,-1.21,88.21,15.55,38.6,0,0,0,0,
-25,56,1361,-2,1,2,-126,647,-334,265.63,-1.35,2.22,-1.21,88.21,15.55,38.6,0,0,0,0,
-25,56,1361,-2,1,2,-126,647,-334,265.63,-1.35,2.22,-1.21,88.21,15.55,38.6,0,0,0,0,
-25,56,1361,-2,1,2,-126,647,-334,265.63,-1.35,2.22,-1.21,88.21,15.55,38.6,0,0,0,0,
-27,54,1362,-2,1,1,-126,647,-334,265.63,-1.35,2.22,-1.21,88.21,15.55,38.6,0,0,0,0,
-27,54,1362,-2,1,1,-126,647,-334,265.63,-1.35,2.22,-1.21,88.21,15.55,38.6,0,0,0,0,
-25,52,1365,0,1,-1,-126,647,-334,265.63,-1.35,2.22,-1.21,88.21,15.55,38.6,0,0,0,0,
-25,52,1365,0,1,-1,-123,644,-331,265.66,-1.35,2.22,-1.21,88.21,15.55,38.6,0,0,0,0,
-25,52,1365,0,1,-1,-123,644,-331,265.66,-1.35,2.22,-1.21,88.22,15.55,38.6,0,0,0,0,
-25,52,1365,0,1,-1,-123,644,-331,265.66,-1.35,2.22,-1.21,88.22,15.55,38.6,0,0,0,0,
-25,52,1365,0,1,-1,-123,644,-331,265.66,-1.35,2.22,-1.21,88.22,15.55,38.6,0,0,0,0,
-25,52,1366,0,0,1,-123,644,-331,265.66,-1.35,2.22,-1.21,88.22,15.55,38.6,0,0,0,0,
-25,52,1366,0,0,1,-123,644,-331,265.66,-1.35,2.22,-1.21,88.22,15.55,38.6,0,0,0,0,
-25,52,1366,0,0,1,-123,644,-331,265.66,-1.35,2.22,-1.21,88.22,15.55,38.6,0,0,0,0,
-23,50,1363,-5,0,0,-123,644,-331,265.66,-1.35,2.22,-1.21,88.22,15.55,38.6,0,0,0,0,
-23,50,1363,-5,0,0,-109,630,-335,265.66,-1.35,2.22,-1.21,88.22,15.55,38.6,0,0,0,0,
-23,50,1363,-5,0,0,-109,630,-335,265.66,-1.35,2.22,-1.21,88.23,15.55,38.6,0,0,0,0,
-23,50,1363,-5,0,0,-109,630,-335,265.66,-1.35,2.22,-1.21,88.23,15.55,38.6,0,0,0,0,
-23,50,1363,-5,0,0,-109,630,-335,265.66,-1.35,2.22,-1.21,88.23,15.55,38.6,0,0,0,0,
-26,54,1364,1,-1,0,-109,630,-335,265.66,-1.35,2.22,-1.21,88.23,15.55,38.6,0,0,0,0,
-26,54,1364,1,-1,0,-109,630,-335,265.66,-1.35,2.22,-1.22,88.23,15.55,38.6,0,0,0,0,
-26,54,1364,1,-1,0,-109,630,-335,265.66,-1.35,2.22,-1.22,88.23,15.55,38.6,0,0,0,0,
-30,53,1362,-1,0,-1,-109,630,-335,265.66,-1.35,2.22,-1.22,88.23,15.55,38.6,0,0,0,0,
-30,53,1362,-1,0,-1,-109,630,-335,265.66,-1.35,2.22,-1.22,88.23,15.55,38.6,0,0,0,0,
-24,52,1365,-3,1,0,-109,630,-335,265.66,-1.35,2.22,-1.22,88.23,15.55,38.6,0,0,0,0,
-24,52,1365,-3,1,0,-112,634,-339,265.67,-1.35,2.22,-1.22,88.23,15.55,38.6,0,0,0,0,
-24,52,1365,-3,1,0,-112,634,-339,265.67,-1.35,2.22,-1.22,88.23,15.55,38.6,0,0,0,0,
-24,52,1365,-3,1,0,-112,634,-339,265.67,-1.35,2.22,-1.22,88.23,15.55,38.6,0,0,0,0,
-24,52,1365,-3,1,0,-112,634,-339,265.67,-1.35,2.22,-1.22,88.23,15.55,38.6,0,0,0,0,
-24,56,1363,0,-2,-2,-112,634,-339,265.67,-1.35,2.22,-1.22,88.23,15.55,38.6,0,0,0,0,
-24,56,1363,0,-2,-2,-112,634,-339,265.67,-1.35,2.22,-1.21,88.24,15.55,38.6,0,0,0,0,
-24,56,1363,0,-2,-2,-112,634,-339,265.67,-1.35,2.22,-1.21,88.24,15.55,38.6,0,0,0,0,
-22,55,1363,0,3,-1,-112,634,-339,265.67,-1.35,2.22,-1.21,88.24,15.55,38.6,0,0,0,0,
-22,55,1363,0,3,-1,-127,650,-335,265.62,-1.35,2.22,-1.21,88.24,15.55,38.6,0,0,0,0,
-22,55,1363,0,3,-1,-127,650,-335,265.62,-1.35,2.22,-1.22,88.25,15.55,38.6,0,0,0,0,
-22,55,1363,0,3,-1,-127,650,-335,265.62,-1.35,2.22,-1.22,88.25,15.55,38.6,0,0,0,0,
-22,55,1363,0,3,-1,-127,650,-335,265.62,-1.35,2.22,-1.22,88.25,15.55,38.6,0,0,0,0,
-25,55,1364,-3,1,0,-127,650,-335,265.62,-1.35,2.22,-1.22,88.25,15.55,38.6,0,0,0,0,
-25,55,1364,-3,1,0,-127,650,-335,265.62,-1.35,2.22,-1.22,88.25,15.55,38.6,0,0,0,0,
-25,55,1364,-3,1,0,-127,650,-335,265.62,-1.35,2.22,-1.22,88.25,15.55,38.6,0,0,0,0,
-27,52,1363,-2,0,-1,-127,650,-335,265.62,-1.35,2.22,-1.22,88.25,15.55,38.6,0,0,0,0,
-27,52,1363,-2,0,-1,-127,650,-335,265.62,-1.35,2.22,-1.22,88.25,15.55,38.6,0,0,0,0,
-23,52,1366,1,-2,-1,-127,650,-335,265.62,-1.35,2.22,-1.22,88.25,15.55,38.6,0,0,0,0,
-23,52,1366,1,-2,-1,-132,650,-332,265.65,-1.35,2.22,-1.22,88.25,15.55,38.6,0,0,0,0,
-23,52,1366,1,-2,-1,-132,650,-332,265.65,-1.35,2.22,-1.21,88.25,15.55,38.6,0,0,0,0,
-23,52,1366,1,-2,-1,-132,650,-332,265.65,-1.35,2.22,-1.21,88.25,15.55,38.6,0,0,0,0,
-23,52,1366,1,-2,-1,-132,650,-332,265.65,-1.35,2.22,-1.21,88.25,15.55,38.6,0,0,0,0,
-23,52,1366,1,-2,-1,-132,650,-332,265.65,-1.35,2.22,-1.21,88.25,15.55,38.6,0,0,0,0,
-25,52,1365,0,-2,0,-132,650,-332,265.65,-1.35,2.22,-1.21,88.25,15.55,38.6,0,0,0,0,
-25,52,1365,0,-2,0,-132,650,-332,265.65,-1.35,2.22,-1.21,88.26,15.55,38.6,0,0,0,0,
-25,52,1365,0,-2,0,-132,650,-332,265.65,-1.35,2.22,-1.21,88.26,15.55,38.6,0,0,0,0,
-21,53,1364,0,-2,0,-132,650,-332,265.65,-1.35,2.22,-1.21,88.26,15.55,38.6,0,0,0,0,
-21,53,1364,0,-2,0,-128,651,-339,265.65,-1.35,2.22,-1.21,88.26,15.55,38.6,0,0,0,0,
-21,53,1364,0,-2,0,-128,651,-339,265.65,-1.35,2.22,-1.21,88.26,15.55,38.6,0,0,0,0,
-21,53,1364,0,-2,0,-128,651,-339,265.65,-1.35,2.22,-1.21,88.26,15.55,38.6,0,0,0,0,
-21,53,1364,0,-2,0,-128,651,-339,265.65,-1.35,2.22,-1.21,88.26,15.55,38.6,0,0,0,0,
-23,55,1364,-5,0,-1,-128,651,-339,265.65,-1.35,2.22,-1.21,88.26,15.55,38.6,0,0,0,0,
-23,55,1364,-5,0,-1,-128,651,-339,265.65,-1.35,2.22,-1.21,88.27,15.55,38.6,0,0,0,0,
-23,55,1364,-5,0,-1,-128,651,-339,265.65,-1.35,2.22,-1.21,88.27,15.55,38.6,0,0,0,0,
-25,52,1366,-4,-1,0,-128,651,-339,265.65,-1.35,2.22,-1.21,88.27,15.55,38.6,0,0,0,0,
-25,52,1366,-4,-1,0,-128,651,-339,265.65,-1.35,2.22,-1.21,88.27,15.55,38.6,0,0,0,0,
-25,54,1360,2,0,4,-128,651,-339,265.65,-1.35,2.22,-1.21,88.27,15.55,38.6,0,0,0,0,
-25,54,1360,2,0,4,-132,656,-336,265.64,-1.35,2.22,-1.21,88.27,15.55,38.6,0,0,0,0,
-25,54,1360,2,0,4,-132,656,-336,265.64,-1.35,2.22,-1.21,88.27,15.55,38.6,0,0,0,0,
-25,54,1360,2,0,4,-132,656,-336,265.64,-1.35,2.22,-1.21,88.27,15.55,38.6,0,0,0,0,
-25,54,1360,2,0,4,-132,656,-336,265.64,-1.35,2.22,-1.21,88.27,15.55,38.6,0,0,0,0,
-25,52,1365,1,0,1,-132,656,-336,265.64,-1.35,2.22,-1.21,88.27,15.55,38.6,0,0,0,0,
-25,52,1365,1,0,1,-132,656,-336,265.64,-1.35,2.22,-1.21,88.27,15.55,38.6,0,0,0,0,
-25,52,1365,1,0,1,-132,656,-336,265.64,-1.35,2.22,-1.21,88.27,15.55,38.6,0,0,0,0,
-23,52,1365,0,-3,-1,-132,656,-336,265.64,-1.35,2.22,-1.21,88.27,15.55,38.6,0,0,0,0,
-23,52,1365,0,-3,-1,-128,653,-329,265.64,-1.35,2.22,-1.21,88.27,15.55,38.6,0,0,0,0,
-23,52,1365,0,-3,-1,-128,653,-329,265.64,-1.35,2.22,-1.21,88.28,15.55,38.6,0,0,0,0,
-23,52,1365,0,-3,-1,-128,653,-329,265.64,-1.35,2.22,-1.21,88.28,15.55,38.6,0,0,0,0,
-23,52,1365,0,-3,-1,-128,653,-329,265.64,-1.35,2.22,-1.21,88.28,15.55,38.6,0,0,0,0,
-24,53,1363,-1,-2,0,-128,653,-329,265.64,-1.35,2.22,-1.21,88.28,15.55,38.6,0,0,0,0,
-24,53,1363,-1,-2,0,-128,653,-329,265.64,-1.35,2.21,-1.21,88.29,15.55,38.6,0,0,0,0,
-24,53,1363,-1,-2,0,-128,653,-329,265.64,-1.35,2.21,-1.21,88.29,15.55,38.6,0,0,0,0,
-27,52,1368,1,-2,1,-128,653,-329,265.64,-1.35,2.21,-1.21,88.29,15.55,38.6,0,0,0,0,
-27,52,1368,1,-2,1,-128,653,-329,265.64,-1.35,2.21,-1.21,88.29,15.55,38.6,0,0,0,0,
-26,56,1368,1,0,1,-128,653,-329,265.64,-1.35,2.21,-1.21,88.29,15.55,38.6,0,0,0,0,
-26,56,1368,1,0,1,-130,653,-334,265.66,-1.35,2.21,-1.21,88.29,15.55,38.6,0,0,0,0,
-26,56,1368,1,0,1,-130,653,-334,265.66,-1.35,2.22,-1.21,88.29,15.55,38.6,0,0,0,0,
-26,56,1368,1,0,1,-130,653,-334,265.66,-1.35,2.22,-1.21,88.29,15.55,38.6,0,0,0,0,
-26,56,1368,1,0,1,-130,653,-334,265.66,-1.35,2.22,-1.21,88.29,15.55,38.6,0,0,0,0,
-27,53,1363,-1,0,2,-130,653,-334,265.66,-1.35,2.22,-1.21,88.29,15.55,38.6,0,0,0,0,
-27,53,1363,-1,0,2,-130,653,-334,265.66,-1.35,2.21,-1.2,88.29,15.55,38.6,0,0,0,0,
-27,53,1363,-1,0,2,-130,653,-334,265.66,-1.35,2.21,-1.2,88.29,15.55,38.6,0,0,0,0,
-23,51,1363,-2,0,1,-130,653,-334,265.66,-1.35,2.21,-1.2,88.29,15.55,38.6,0,0,0,0,
-23,51,1363,-2,0,1,-127,652,-340,265.66,-1.35,2.21,-1.2,88.29,15.55,38.6,0,0,0,0,
-23,51,1363,-2,0,1,-127,652,-340,265.66,-1.35,2.21,-1.2,88.3,15.55,38.6,0,0,0,0,
-23,51,1363,-2,0,1,-127,652,-340,265.66,-1.35,2.21,-1.2,88.3,15.55,38.6,0,0,0,0,
-23,51,1363,-2,0,1,-127,652,-340,265.66,-1.35,2.21,-1.2,88.3,15.55,38.6,0,0,0,0,
-26,54,1367,0,0,2,-127,652,-340,265.66,-1.35,2.21,-1.2,88.3,15.55,38.6,0,0,0,0,
-26,54,1367,0,0,2,-127,652,-340,265.66,-1.35,2.21,-1.21,88.3,15.55,38.6,0,0,0,0,
-26,54,1367,0,0,2,-127,652,-340,265.66,-1.35,2.21,-1.21,88.3,15.55,38.6,0,0,0,0,
-27,53,1364,-2,1,0,-127,652,-340,265.66,-1.35,2.21,-1.21,88.3,15.55,38.6,0,0,0,0,
-27,53,1364,-2,1,0,-127,652,-340,265.66,-1.35,2.21,-1.21,88.3,15.55,38.6,0,0,0,0,
-22,53,1366,-1,0,1,-127,652,-340,265.66,-1.35,2.21,-1.21,88.3,15.55,38.6,0,0,0,0,
-22,53,1366,-1,0,1,-128,650,-332,265.66,-1.35,2.21,-1.21,88.3,15.55,38.6,0,0,0,0,
-22,53,1366,-1,0,1,-128,650,-332,265.66,-1.35,2.21,-1.21,88.31,15.55,38.6,0,0,0,0,
-22,53,1366,-1,0,1,-128,650,-332,265.66,-1.35,2.21,-1.21,88.31,15.55,38.6,0,0,0,0,
-22,53,1366,-1,0,1,-128,650,-332,265.66,-1.35,2.21,-1.21,88.31,15.55,38.6,0,0,0,0,
-22,53,1366,-1,0,1,-128,650,-332,265.66,-1.35,2.21,-1.21,88.31,15.55,38.6,0,0,0,0,
-25,48,1363,0,0,0,-128,650,-332,265.66,-1.35,2.21,-1.21,88.31,15.55,38.6,0,0,0,0,
-25,48,1363,0,0,0,-128,650,-332,265.66,-1.35,2.21,-1.21,88.31,15.55,38.6,0,0,0,0,
-25,48,1363,0,0,0,-128,650,-332,265.66,-1.35,2.21,-1.21,88.31,15.55,38.6,0,0,0,0,
-22,56,1368,-1,5,-1,-128,650,-332,265.66,-1.35,2.21,-1.21,88.31,15.55,38.6,0,0,0,0,
-22,56,1368,-1,5,-1,-133,649,-344,265.65,-1.35,2.21,-1.21,88.31,15.55,38.6,0,0,0,0,
-22,56,1368,-1,5,-1,-133,649,-344,265.65,-1.35,2.21,-1.21,88.32,15.55,38.6,0,0,0,0,
-22,56,1368,-1,5,-1,-133,649,-344,265.65,-1.35,2.21,-1.21,88.32,15.55,38.6,0,0,0,0,
-22,56,1368,-1,5,-1,-133,649,-344,265.65,-1.35,2.21,-1.21,88.32,15.55,38.6,0,0,0,0,
-24,54,1363,0,-1,3,-133,649,-344,265.65,-1.35,2.21,-1.21,88.32,15.55,38.6,0,0,0,0,
-24,54,1363,0,-1,3,-133,649,-344,265.65,-1.35,2.21,-1.21,88.32,15.55,38.6,0,0,0,0,
-24,54,1363,0,-1,3,-133,649,-344,265.65,-1.35,2.21,-1.21,88.32,15.55,38.6,0,0,0,0,
-26,52,1366,-1,0,-2,-133,649,-344,265.65,-1.35,2.21,-1.21,88.32,15.55,38.6,0,0,0,0,
-26,52,1366,-1,0,-2,-133,649,-344,265.65,-1.35,2.21,-1.21,88.32,15.55,38.6,0,0,0,0,
-24,53,1365,-1,1,0,-133,649,-344,265.65,-1.35,2.21,-1.21,88.32,15.55,38.6,0,0,0,0,
-24,53,1365,-1,1,0,-134,656,-345,265.69,-1.35,2.21,-1.21,88.32,15.55,38.6,0,0,0,0,
-24,53,1365,-1,1,0,-134,656,-345,265.69,-1.35,2.21,-1.2,88.32,15.55,38.6,0,0,0,0,
-24,53,1365,-1,1,0,-134,656,-345,265.69,-1.35,2.21,-1.2,88.32,15.55,38.6,0,0,0,0,
-24,53,1365,-1,1,0,-134,656,-345,265.69,-1.35,2.21,-1.2,88.32,15.55,38.6,0,0,0,0,
-23,53,1366,-2,0,0,-134,656,-345,265.69,-1.35,2.21,-1.2,88.32,15.55,38.6,0,0,0,0,
-23,53,1366,-2,0,0,-134,656,-345,265.69,-1.35,2.21,-1.2,88.33,15.55,38.6,0,0,0,0,
-23,53,1366,-2,0,0,-134,656,-345,265.69,-1.35,2.21,-1.2,88.33,15.55,38.6,0,0,0,0,
-23,54,1364,-8,-3,2,-134,656,-345,265.69,-1.35,2.21,-1.2,88.33,15.55,38.6,0,0,0,0,
-23,54,1364,-8,-3,2,-111,631,-337,265.64,-1.35,2.21,-1.2,88.33,15.55,38.6,0,0,0,0,
-23,54,1364,-8,-3,2,-111,631,-337,265.64,-1.35,2.2,-1.2,88.33,15.55,38.6,0,0,0,0,
-23,54,1364,-8,-3,2,-111,631,-337,265.64,-1.35,2.2,-1.2,88.33,15.55,38.6,0,0,0,0,
-23,54,1364,-8,-3,2,-111,631,-337,265.64,-1.35,2.2,-1.2,88.33,15.55,38.6,0,0,0,0,
-24,53,1366,-1,2,2,-111,631,-337,265.64,-1.35,2.2,-1.2,88.33,15.55,38.6,0,0,0,0,
-24,53,1366,-1,2,2,-111,631,-337,265.64,-1.35,2.2,-1.2,88.34,15.55,38.6,0,0,0,0,
-24,53,1366,-1,2,2,-111,631,-337,265.64,-1.35,2.2,-1.2,88.34,15.55,38.6,0,0,0,0,
-26,53,1361,-2,0,0,-111,631,-337,265.64,-1.35,2.2,-1.2,88.34,15.55,38.6,0,0,0,0,
-26,53,1361,-2,0,0,-111,631,-337,265.64,-1.35,2.2,-1.2,88.34,15.55,38.6,0,0,0,0,
-24,51,1361,0,1,0,-111,631,-337,265.64,-1.35,2.2,-1.2,88.34,15.55,38.6,0,0,0,0,
-24,51,1361,0,1,0,-111,631,-325,265.64,-1.35,2.2,-1.2,88.34,15.55,38.6,0,0,0,0,
-24,51,1361,0,1,0,-111,631,-325,265.64,-1.35,2.2,-1.2,88.34,15.55,38.6,0,0,0,0,
-24,51,1361,0,1,0,-111,631,-325,265.64,-1.35,2.2,-1.2,88.34,15.55,38.6,0,0,0,0,
-24,51,1361,0,1,0,-111,631,-325,265.64,-1.35,2.2,-1.2,88.34,15.55,38.6,0,0,0,0,
-26,52,1366,-1,0,0,-111,631,-325,265.64,-1.35,2.2,-1.2,88.34,15.55,38.6,0,0,0,0,
-26,52,1366,-1,0,0,-111,631,-325,265.64,-1.35,2.2,-1.2,88.35,15.55,38.6,0,0,0,0,
-26,52,1366,-1,0,0,-111,631,-325,265.64,-1.35,2.2,-1.2,88.35,15.55,38.6,0,0,0,0,
-25,54,1363,0,2,1,-111,631,-325,265.64,-1.35,2.2,-1.2,88.35,15.55,38.6,0,0,0,0,
-25,54,1363,0,2,1,-116,637,-334,265.65,-1.35,2.2,-1.2,88.35,15.55,38.6,0,0,0,0,
-25,54,1363,0,2,1,-116,637,-334,265.65,-1.35,2.21,-1.2,88.35,15.55,38.6,0,0,0,0,
-25,54,1363,0,2,1,-116,637,-334,265.65,-1.35,2.21,-1.2,88.35,15.55,38.6,0,0,0,0,
-25,54,1363,0,2,1,-116,637,-334,265.65,-1.35,2.21,-1.2,88.35,15.55,38.6,0,0,0,0,
-23,56,1365,0,0,-1,-116,637,-334,265.65,-1.35,2.21,-1.2,88.35,15.55,38.6,0,0,0,0,
-23,56,1365,0,0,-1,-116,637,-334,265.65,-1.35,2.21,-1.2,88.36,15.55,38.6,0,0,0,0,
-23,56,1365,0,0,-1,-116,637,-334,265.65,-1.35,2.21,-1.2,88.36,15.55,38.6,0,0,0,0,
-26,53,1366,0,-2,3,-116,637,-334,265.65,-1.35,2.21,-1.2,88.36,15.55,38.6,0,0,0,0,
-26,53,1366,0,-2,3,-116,637,-334,265.65,-1.35,2.21,-1.2,88.36,15.55,38.6,0,0,0,0,
-24,55,1363,3,0,0,-116,637,-334,265.65,-1.35,2.21,-1.2,88.36,15.55,38.6,0,0,0,0,
-24,55,1363,3,0,0,-116,631,-326,265.65,-1.35,2.21,-1.2,88.36,15.55,38.6,0,0,0,0,
-24,55,1363,3,0,0,-116,631,-326,265.65,-1.35,2.21,-1.2,88.36,15.55,38.6,0,0,0,0,
-24,55,1363,3,0,0,-116,631,-326,265.65,-1.35,2.21,-1.2,88.36,15.55,38.6,0,0,0,0,
-24,55,1363,3,0,0,-116,631,-326,265.65,-1.35,2.21,-1.2,88.36,15.56,38.6,0,0,0,0,
-24,55,1363,3,0,0,-116,631,-326,265.65,-1.35,2.21,-1.2,88.36,15.56,38.6,0,0,0,0,
-28,52,1367,0,-1,1,-116,631,-326,265.65,-1.35,2.21,-1.2,88.36,15.56,38.6,0,0,0,0,
-28,52,1367,0,-1,1,-116,631,-326,265.65,-1.35,2.21,-1.2,88.37,15.56,38.6,0,0,0,0,
-28,52,1367,0,-1,1,-116,631,-326,265.65,-1.35,2.21,-1.2,88.37,15.56,38.6,0,0,0,0,
-25,55,1363,-4,0,1,-116,631,-326,265.65,-1.35,2.21,-1.2,88.37,15.56,38.6,0,0,0,0,
-25,55,1363,-4,0,1,-110,633,-339,265.66,-1.35,2.21,-1.2,88.37,15.56,38.6,0,0,0,0,
-25,55,1363,-4,0,1,-110,633,-339,265.66,-1.35,2.21,-1.2,88.37,15.56,38.6,0,0,0,0,
-25,55,1363,-4,0,1,-110,633,-339,265.66,-1.35,2.21,-1.2,88.37,15.56,38.6,0,0,0,0,
-25,55,1363,-4,0,1,-110,633,-339,265.66,-1.35,2.21,-1.2,88.37,15.56,38.6,0,0,0,0,
-26,54,1365,0,0,-2,-110,633,-339,265.66,-1.35,2.21,-1.2,88.37,15.56,38.6,0,0,0,0,
-26,54,1365,0,0,-2,-110,633,-339,265.66,-1.35,2.21,-1.2,88.38,15.56,38.6,0,0,0,0,
-26,54,1365,0,0,-2,-110,633,-339,265.66,-1.35,2.21,-1.2,88.38,15.56,38.6,0,0,0,0,
-24,51,1364,-3,0,0,-110,633,-339,265.66,-1.35,2.21,-1.2,88.38,15.56,38.6,0,0,0,0,
-24,51,1364,-3,0,0,-110,633,-339,265.66,-1.35,2.21,-1.2,88.38,15.56,38.6,0,0,0,0,
-28,53,1366,1,-1,1,-110,633,-339,265.66,-1.35,2.21,-1.2,88.38,15.56,38.6,0,0,0,0,
-28,53,1366,1,-1,1,-102,632,-343,265.66,-1.35,2.21,-1.2,88.38,15.56,38.6,0,0,0,0,
-28,53,1366,1,-1,1,-102,632,-343,265.66,-1.35,2.21,-1.2,88.38,15.56,38.6,0,0,0,0,
-28,53,1366,1,-1,1,-102,632,-343,265.66,-1.35,2.21,-1.2,88.38,15.56,38.6,0,0,0,0,
-28,53,1366,1,-1,1,-102,632,-343,265.66,-1.35,2.21,-1.2,88.38,15.56,38.6,0,0,0,0,
-25,53,1365,-3,2,0,-102,632,-343,265.66,-1.35,2.21,-1.2,88.38,15.56,38.6,0,0,0,0,
-25,53,1365,-3,2,0,-102,632,-343,265.66,-1.35,2.21,-1.2,88.39,15.56,38.6,0,0,0,0,
-25,53,1365,-3,2,0,-102,632,-343,265.66,-1.35,2.21,-1.2,88.39,15.56,38.6,0,0,0,0,
-27,55,1362,0,-1,1,-102,632,-343,265.66,-1.35,2.21,-1.2,88.39,15.56,38.6,0,0,0,0,
-27,55,1362,0,-1,1,-118,631,-330,265.62,-1.35,2.21,-1.2,88.39,15.56,38.6,0,0,0,0,
-27,55,1362,0,-1,1,-118,631,-330,265.62,-1.35,2.22,-1.2,88.39,15.56,38.6,0,0,0,0,
-27,55,1362,0,-1,1,-118,631,-330,265.62,-1.35,2.22,-1.2,88.39,15.56,38.6,0,0,0,0,
-27,55,1362,0,-1,1,-118,631,-330,265.62,-1.35,2.22,-1.2,88.39,15.56,38.6,0,0,0,0,
-22,51,1367,-5,1,0,-118,631,-330,265.62,-1.35,2.22,-1.2,88.39,15.56,38.6,0,0,0,0,
-22,51,1367,-5,1,0,-118,631,-330,265.62,-1.35,2.21,-1.2,88.39,15.56,38.6,0,0,0,0,
-22,51,1367,-5,1,0,-118,631,-330,265.62,-1.35,2.21,-1.2,88.39,15.56,38.6,0,0,0,0,
-25,55,1363,1,1,0,-118,631,-330,265.62,-1.35,2.21,-1.2,88.39,15.56,38.6,0,0,0,0,
-25,55,1363,1,1,0,-118,631,-330,265.62,-1.35,2.21,-1.2,88.39,15.56,38.6,0,0,0,0,
-23,53,1364,-2,-1,-1,-118,631,-330,265.62,-1.35,2.21,-1.2,88.39,15.56,38.6,0,0,0,0,
-23,53,1364,-2,-1,-1,-108,634,-329,265.63,-1.35,2.21,-1.2,88.39,15.56,38.6,0,0,0,0,
-23,53,1364,-2,-1,-1,-108,634,-329,265.63,-1.35,2.21,-1.2,88.4,15.56,38.6,0,0,0,0,
-23,53,1364,-2,-1,-1,-108,634,-329,265.63,-1.35,2.21,-1.2,88.4,15.56,38.6,0,0,0,0,
-23,53,1364,-2,-1,-1,-108,634,-329,265.63,-1.35,2.21,-1.2,88.4,15.56,38.6,0,0,0,0,
-29,55,1368,0,0,1,-108,634,-329,265.63,-1.35,2.21,-1.2,88.4,15.56,38.6,0,0,0,0,
-29,55,1368,0,0,1,-108,634,-329,265.63,-1.35,2.21,-1.2,88.4,15.56,38.6,0,0,0,0,
-29,55,1368,0,0,1,-108,634,-329,265.63,-1.35,2.21,-1.2,88.4,15.56,38.6,0,0,0,0,
-24,53,1365,-2,0,0,-108,634,-329,265.63,-1.35,2.21,-1.2,88.4,15.56,38.6,0,0,0,0,
-24,53,1365,-2,0,0,-109,629,-332,265.63,-1.35,2.21,-1.2,88.4,15.56,38.6,0,0,0,0,
-24,53,1365,-2,0,0,-109,629,-332,265.63,-1.35,2.21,-1.2,88.41,15.56,38.6,0,0,0,0,
-24,53,1365,-2,0,0,-109,629,-332,265.63,-1.35,2.21,-1.2,88.41,15.56,38.6,0,0,0,0,
-24,53,1365,-2,0,0,-109,629,-332,265.63,-1.35,2.21,-1.2,88.41,15.56,38.6,0,0,0,0,
-26,57,1361,-3,0,-1,-109,629,-332,265.63,-1.35,2.21,-1.2,88.41,15.56,38.6,0,0,0,0,
-26,57,1361,-3,0,-1,-109,629,-332,265.63,-1.35,2.21,-1.2,88.41,15.56,38.6,0,0,0,0,
-26,57,1361,-3,0,-1,-109,629,-332,265.63,-1.35,2.21,-1.2,88.41,15.56,38.6,0,0,0,0,
-24,54,1363,-1,0,0,-109,629,-332,265.63,-1.35,2.21,-1.2,88.41,15.56,38.6,0,0,0,0,
-24,54,1363,-1,0,0,-109,629,-332,265.63,-1.35,2.21,-1.2,88.41,15.56,38.6,0,0,0,0,
-27,52,1364,-4,0,-1,-109,629,-332,265.63,-1.35,2.21,-1.2,88.41,15.56,38.6,0,0,0,0,
-27,52,1364,-4,0,-1,-114,635,-336,265.61,-1.35,2.21,-1.2,88.41,15.56,38.6,0,0,0,0,
-27,52,1364,-4,0,-1,-114,635,-336,265.61,-1.35,2.2,-1.2,88.42,15.56,38.6,0,0,0,0,
-27,52,1364,-4,0,-1,-114,635,-336,265.61,-1.35,2.2,-1.2,88.42,15.56,38.6,0,0,0,0,
-27,52,1364,-4,0,-1,-114,635,-336,265.61,-1.35,2.2,-1.2,88.42,15.56,38.6,0,0,0,0,
-27,52,1364,-4,0,-1,-114,635,-336,265.61,-1.35,2.2,-1.2,88.42,15.56,38.6,0,0,0,0,
-23,53,1363,-4,-1,-2,-114,635,-336,265.61,-1.35,2.2,-1.2,88.42,15.56,38.6,0,0,0,0,
-23,53,1363,-4,-1,-2,-114,635,-336,265.61,-1.35,2.2,-1.2,88.42,15.56,38.6,0,0,0,0,
-23,53,1363,-4,-1,-2,-114,635,-336,265.61,-1.35,2.2,-1.2,88.42,15.56,38.6,0,0,0,0,
-25,53,1364,0,2,1,-114,635,-336,265.61,-1.35,2.2,-1.2,88.42,15.56,38.6,0,0,0,0,
-25,53,1364,0,2,1,-122,637,-337,265.65,-1.35,2.2,-1.2,88.42,15.56,38.6,0,0,0,0,
-25,53,1364,0,2,1,-122,637,-337,265.65,-1.35,2.2,-1.2,88.43,15.56,38.6,0,0,0,0,
-25,53,1364,0,2,1,-122,637,-337,265.65,-1.35,2.2,-1.2,88.43,15.56,38.6,0,0,0,0,
-25,53,1364,0,2,1,-122,637,-337,265.65,-1.35,2.2,-1.2,88.43,15.56,38.6,0,0,0,0,
-28,54,1365,-2,-1,0,-122,637,-337,265.65,-1.35,2.2,-1.2,88.43,15.56,38.6,0,0,0,0,
-28,54,1365,-2,-1,0,-122,637,-337,265.65,-1.35,2.2,-1.2,88.43,15.56,38.6,0,0,0,0,
-28,54,1365,-2,-1,0,-122,637,-337,265.65,-1.35,2.2,-1.2,88.43,15.56,38.6,0,0,0,0,
-28,55,1365,0,-2,0,-122,637,-337,265.65,-1.35,2.2,-1.2,88.43,15.56,38.6,0,0,0,0,
-28,55,1365,0,-2,0,-122,637,-337,265.65,-1.35,2.2,-1.2,88.43,15.56,38.6,0,0,0,0,
-25,55,1366,-2,-1,0,-122,637,-337,265.65,-1.35,2.2,-1.2,88.43,15.56,38.6,0,0,0,0,
-25,55,1366,-2,-1,0,-120,641,-333,265.62,-1.35,2.2,-1.2,88.43,15.56,38.6,0,0,0,0,
-25,55,1366,-2,-1,0,-120,641,-333,265.62,-1.35,2.2,-1.19,88.44,15.56,38.6,0,0,0,0,
-25,55,1366,-2,-1,0,-120,641,-333,265.62,-1.35,2.2,-1.19,88.44,15.56,38.6,0,0,0,0,
-25,55,1366,-2,-1,0,-120,641,-333,265.62,-1.35,2.2,-1.19,88.44,15.56,38.6,0,0,0,0,
-20,53,1365,0,0,0,-120,641,-333,265.62,-1.35,2.2,-1.19,88.44,15.56,38.6,0,0,0,0,
-20,53,1365,0,0,0,-120,641,-333,265.62,-1.35,2.2,-1.2,88.44,15.56,38.6,0,0,0,0,
-20,53,1365,0,0,0,-120,641,-333,265.62,-1.35,2.2,-1.2,88.44,15.56,38.6,0,0,0,0,
-26,53,1364,0,-2,1,-120,641,-333,265.62,-1.35,2.2,-1.2,88.44,15.56,38.6,0,0,0,0,
-26,53,1364,0,-2,1,-121,637,-349,265.64,-1.35,2.2,-1.2,88.44,15.56,38.6,0,0,0,0,
-26,53,1364,0,-2,1,-121,637,-349,265.64,-1.35,2.2,-1.19,88.44,15.56,38.6,0,0,0,0,
-26,53,1364,0,-2,1,-121,637,-349,265.64,-1.35,2.2,-1.19,88.44,15.56,38.6,0,0,0,0,
-26,53,1364,0,-2,1,-121,637,-349,265.64,-1.35,2.2,-1.19,88.44,15.56,38.6,0,0,0,0,
-25,52,1366,-1,1,0,-121,637,-349,265.64,-1.35,2.2,-1.19,88.44,15.56,38.6,0,0,0,0,
-25,52,1366,-1,1,0,-121,637,-349,265.64,-1.35,2.2,-1.19,88.45,15.56,38.6,0,0,0,0,
-25,52,1366,-1,1,0,-121,637,-349,265.64,-1.35,2.2,-1.19,88.45,15.56,38.6,0,0,0,0,
-22,52,1361,-1,0,-1,-121,637,-349,265.64,-1.35,2.2,-1.19,88.45,15.56,38.6,0,0,0,0,
-22,52,1361,-1,0,-1,-121,637,-349,265.64,-1.35,2.2,-1.19,88.45,15.56,38.6,0,0,0,0,
-26,54,1363,3,4,0,-121,637,-349,265.64,-1.35,2.2,-1.19,88.45,15.56,38.6,0,0,0,0,
-26,54,1363,3,4,0,-118,638,-335,265.63,-1.35,2.2,-1.19,88.45,15.56,38.6,0,0,0,0,
-26,54,1363,3,4,0,-118,638,-335,265.63,-1.35,2.2,-1.2,88.45,15.56,38.6,0,0,0,0,
-26,54,1363,3,4,0,-118,638,-335,265.63,-1.36,2.2,-1.2,88.45,15.56,38.6,0,0,0,0,
-26,54,1363,3,4,0,-118,638,-335,265.63,-1.36,2.2,-1.2,88.45,15.56,38.6,0,0,0,0,
-26,53,1367,-5,0,0,-118,638,-335,265.63,-1.36,2.2,-1.2,88.45,15.56,38.6,0,0,0,0,
-26,53,1367,-5,0,0,-118,638,-335,265.63,-1.36,2.2,-1.2,88.46,15.56,38.6,0,0,0,0,
-26,53,1367,-5,0,0,-118,638,-335,265.63,-1.36,2.2,-1.2,88.46,15.56,38.6,0,0,0,0,
-27,53,1364,1,0,0,-118,638,-335,265.63,-1.36,2.2,-1.2,88.46,15.56,38.6,0,0,0,0,
-27,53,1364,1,0,0,-110,628,-343,265.61,-1.36,2.2,-1.2,88.46,15.56,38.6,0,0,0,0,
-27,53,1364,1,0,0,-110,628,-343,265.61,-1.36,2.2,-1.19,88.46,15.56,38.6,0,0,0,0,
-27,53,1364,1,0,0,-110,628,-343,265.61,-1.36,2.2,-1.19,88.46,15.56,38.6,0,0,0,0,
-27,53,1364,1,0,0,-110,628,-343,265.61,-1.36,2.2,-1.19,88.46,15.56,38.6,0,0,0,0,
-26,56,1362,-2,0,-1,-110,628,-343,265.61,-1.36,2.2,-1.19,88.46,15.56,38.6,0,0,0,0,
-26,56,1362,-2,0,-1,-110,628,-343,265.61,-1.36,2.2,-1.19,88.47,15.56,38.6,0,0,0,0,
-26,56,1362,-2,0,-1,-110,628,-343,265.61,-1.36,2.2,-1.19,88.47,15.56,38.6,0,0,0,0,
-23,55,1365,1,-1,0,-110,628,-343,265.61,-1.36,2.2,-1.19,88.47,15.56,38.6,0,0,0,0,
-23,55,1365,1,-1,0,-110,628,-343,265.61,-1.36,2.2,-1.19,88.47,15.56,38.6,0,0,0,0,
-27,52,1365,0,1,0,-110,628,-343,265.61,-1.36,2.2,-1.19,88.47,15.56,38.6,0,0,0,0,
-27,52,1365,0,1,0,-107,632,-325,265.65,-1.36,2.2,-1.19,88.47,15.56,38.7,0,0,0,0,
-27,52,1365,0,1,0,-107,632,-325,265.65,-1.36,2.2,-1.19,88.47,15.56,38.7,0,0,0,0,
-27,52,1365,0,1,0,-107,632,-325,265.65,-1.36,2.2,-1.19,88.47,15.56,38.7,0,0,0,0,
-27,52,1365,0,1,0,-107,632,-325,265.65,-1.36,2.2,-1.19,88.47,15.56,38.7,0,0,0,0,
-27,52,1365,0,1,0,-107,632,-325,265.65,-1.36,2.2,-1.19,88.47,15.56,38.7,0,0,0,0,
-25,50,1364,0,1,0,-107,632,-325,265.65,-1.36,2.2,-1.19,88.47,15.56,38.7,0,0,0,0,
-25,50,1364,0,1,0,-107,632,-325,265.65,-1.36,2.21,-1.2,88.48,15.56,38.7,0,0,0,0,
-25,50,1364,0,1,0,-107,632,-325,265.65,-1.36,2.21,-1.2,88.48,15.56,38.7,0,0,0,0,
-26,53,1363,0,-1,2,-107,632,-325,265.65,-1.36,2.21,-1.2,88.48,15.56,38.7,0,0,0,0,
-26,53,1363,0,-1,2,-122,646,-336,265.62,-1.36,2.21,-1.2,88.48,15.56,38.7,0,0,0,0,
-26,53,1363,0,-1,2,-122,646,-336,265.62,-1.36,2.21,-1.2,88.48,15.56,38.7,0,0,0,0,
-26,53,1363,0,-1,2,-122,646,-336,265.62,-1.36,2.21,-1.2,88.48,15.56,38.7,0,0,0,0,
-26,53,1363,0,-1,2,-122,646,-336,265.62,-1.36,2.21,-1.2,88.48,15.56,38.7,0,0,0,0,
-25,54,1365,-4,0,2,-122,646,-336,265.62,-1.36,2.21,-1.2,88.48,15.56,38.7,0,0,0,0,
-25,54,1365,-4,0,2,-122,646,-336,265.62,-1.36,2.21,-1.2,88.49,15.56,38.7,0,0,0,0,
-25,54,1365,-4,0,2,-122,646,-336,265.62,-1.36,2.21,-1.2,88.49,15.56,38.7,0,0,0,0,
-27,55,1363,3,1,-2,-122,646,-336,265.62,-1.36,2.21,-1.2,88.49,15.56,38.7,0,0,0,0,
-27,55,1363,3,1,-2,-122,646,-336,265.62,-1.36,2.21,-1.2,88.49,15.56,38.7,0,0,0,0,
-27,54,1366,-1,0,0,-122,646,-336,265.62,-1.36,2.21,-1.2,88.49,15.56,38.7,0,0,0,0,
-27,54,1366,-1,0,0,-125,645,-335,265.62,-1.36,2.21,-1.2,88.49,15.56,38.7,0,0,0,0,
-27,54,1366,-1,0,0,-125,645,-335,265.62,-1.36,2.21,-1.19,88.49,15.56,38.7,0,0,0,0,
-27,54,1366,-1,0,0,-125,645,-335,265.62,-1.36,2.21,-1.19,88.49,15.56,38.7,0,0,0,0,
-27,54,1366,-1,0,0,-125,645,-335,265.62,-1.36,2.21,-1.19,88.49,15.56,38.7,0,0,0,0,
-24,53,1364,2,1,0,-125,645,-335,265.62,-1.36,2.21,-1.19,88.49,15.56,38.7,0,0,0,0,
-24,53,1364,2,1,0,-125,645,-335,265.62,-1.36,2.21,-1.19,88.49,15.56,38.7,0,0,0,0,
-24,53,1364,2,1,0,-125,645,-335,265.62,-1.36,2.21,-1.19,88.49,15.56,38.7,0,0,0,0,
-26,51,1365,0,-1,0,-125,645,-335,265.62,-1.36,2.21,-1.19,88.49,15.56,38.7,0,0,0,0,
-26,51,1365,0,-1,0,-126,648,-341,265.6,-1.36,2.21,-1.19,88.49,15.56,38.7,0,0,0,0,
-26,51,1365,0,-1,0,-126,648,-341,265.6,-1.36,2.21,-1.2,88.5,15.56,38.7,0,0,0,0,
-26,51,1365,0,-1,0,-126,648,-341,265.6,-1.36,2.21,-1.2,88.5,15.56,38.7,0,0,0,0,
-26,51,1365,0,-1,0,-126,648,-341,265.6,-1.36,2.21,-1.2,88.5,15.56,38.7,0,0,0,0,
-25,53,1362,-3,-1,0,-126,648,-341,265.6,-1.36,2.21,-1.2,88.5,15.56,38.7,0,0,0,0,
-25,53,1362,-3,-1,0,-126,648,-341,265.6,-1.36,2.21,-1.19,88.5,15.56,38.7,0,0,0,0,
-25,53,1362,-3,-1,0,-126,648,-341,265.6,-1.36,2.21,-1.19,88.5,15.56,38.7,0,0,0,0,
-27,53,1365,-3,-1,-1,-126,648,-341,265.6,-1.36,2.21,-1.19,88.5,15.56,38.7,0,0,0,0,
-27,53,1365,-3,-1,-1,-126,648,-341,265.6,-1.36,2.21,-1.19,88.5,15.56,38.7,0,0,0,0,
-25,55,1363,0,3,0,-126,648,-341,265.6,-1.36,2.21,-1.19,88.5,15.56,38.7,0,0,0,0,
-25,55,1363,0,3,0,-124,640,-338,265.64,-1.36,2.21,-1.19,88.5,15.56,38.7,0,0,0,0,
-25,55,1363,0,3,0,-124,640,-338,265.64,-1.36,2.21,-1.19,88.51,15.56,38.7,0,0,0,0,
-25,55,1363,0,3,0,-124,640,-338,265.64,-1.36,2.21,-1.19,88.51,15.56,38.7,0,0,0,0,
-25,55,1363,0,3,0,-124,640,-338,265.64,-1.36,2.21,-1.19,88.51,15.56,38.7,0,0,0,0,
-22,54,1365,-1,0,-2,-124,640,-338,265.64,-1.36,2.21,-1.19,88.51,15.56,38.7,0,0,0,0,
-22,54,1365,-1,0,-2,-124,640,-338,265.64,-1.36,2.21,-1.19,88.51,15.56,38.7,0,0,0,0,
-22,54,1365,-1,0,-2,-124,640,-338,265.64,-1.36,2.21,-1.19,88.51,15.56,38.7,0,0,0,0,
-27,55,1364,0,0,0,-124,640,-338,265.64,-1.36,2.21,-1.19,88.51,15.56,38.7,0,0,0,0,
-27,55,1364,0,0,0,-111,630,-330,265.64,-1.36,2.21,-1.19,88.51,15.56,38.7,0,0,0,0,
-27,55,1364,0,0,0,-111,630,-330,265.64,-1.36,2.22,-1.19,88.52,15.56,38.7,0,0,0,0,
-27,55,1364,0,0,0,-111,630,-330,265.64,-1.36,2.22,-1.19,88.52,15.56,38.7,0,0,0,0,
-27,55,1364,0,0,0,-111,630,-330,265.64,-1.36,2.22,-1.19,88.52,15.56,38.7,0,0,0,0,
-24,55,1362,-2,0,-2,-111,630,-330,265.64,-1.36,2.22,-1.19,88.52,15.56,38.7,0,0,0,0,
-24,55,1362,-2,0,-2,-111,630,-330,265.64,-1.36,2.21,-1.19,88.52,15.56,38.7,0,0,0,0,
-24,55,1362,-2,0,-2,-111,630,-330,265.64,-1.36,2.21,-1.19,88.52,15.56,38.7,0,0,0,0,
-24,52,1365,-3,0,0,-111,630,-330,265.64,-1.36,2.21,-1.19,88.52,15.56,38.7,0,0,0,0,
-24,52,1365,-3,0,0,-111,630,-330,265.64,-1.36,2.21,-1.19,88.52,15.56,38.7,0,0,0,0,
-21,52,1361,-4,2,0,-111,630,-330,265.64,-1.36,2.21,-1.19,88.52,15.56,38.7,0,0,0,0,
-21,52,1361,-4,2,0,-110,634,-335,265.64,-1.36,2.21,-1.19,88.52,15.56,38.7,0,0,0,0,
-21,52,1361,-4,2,0,-110,634,-335,265.64,-1.36,2.21,-1.19,88.53,15.56,38.7,0,0,0,0,
-21,52,1361,-4,2,0,-110,634,-335,265.64,-1.36,2.21,-1.19,88.53,15.56,38.7,0,0,0,0,
-21,52,1361,-4,2,0,-110,634,-335,265.64,-1.36,2.21,-1.19,88.53,15.56,38.7,0,0,0,0,
-21,52,1361,-4,2,0,-110,634,-335,265.64,-1.36,2.21,-1.19,88.53,15.56,38.7,0,0,0,0,
-27,54,1364,-3,-3,-1,-110,634,-335,265.64,-1.36,2.21,-1.19,88.53,15.56,38.7,0,0,0,0,
-27,54,1364,-3,-3,-1,-110,634,-335,265.64,-1.36,2.21,-1.19,88.53,15.56,38.7,0,0,0,0,
-27,54,1364,-3,-3,-1,-110,634,-335,265.64,-1.36,2.21,-1.19,88.53,15.56,38.7,0,0,0,0,
-25,54,1366,-3,0,-1,-110,634,-335,265.64,-1.36,2.21,-1.19,88.53,15.56,38.7,0,0,0,0,
-25,54,1366,-3,0,-1,-135,659,-348,265.64,-1.36,2.21,-1.19,88.53,15.56,38.7,0,0,0,0,
-25,54,1366,-3,0,-1,-135,659,-348,265.64,-1.36,2.21,-1.19,88.53,15.56,38.7,0,0,0,0,
-25,54,1366,-3,0,-1,-135,659,-348,265.64,-1.36,2.21,-1.19,88.53,15.56,38.7,0,0,0,0,
-25,54,1366,-3,0,-1,-135,659,-348,265.64,-1.36,2.21,-1.19,88.53,15.56,38.7,0,0,0,0,
-23,56,1366,0,2,0,-135,659,-348,265.64,-1.36,2.21,-1.19,88.53,15.56,38.7,0,0,0,0,
-23,56,1366,0,2,0,-135,659,-348,265.64,-1.36,2.21,-1.19,88.54,15.56,38.7,0,0,0,0,
-23,56,1366,0,2,0,-135,659,-348,265.64,-1.36,2.21,-1.19,88.54,15.56,38.7,0,0,0,0,
-25,55,1361,-1,-2,0,-135,659,-348,265.64,-1.36,2.21,-1.19,88.54,15.56,38.7,0,0,0,0,
-25,55,1361,-1,-2,0,-135,659,-348,265.64,-1.36,2.21,-1.19,88.54,15.56,38.7,0,0,0,0,
-26,50,1364,-4,-3,1,-135,659,-348,265.64,-1.36,2.21,-1.19,88.54,15.56,38.7,0,0,0,0,
-26,50,1364,-4,-3,1,-130,657,-338,265.61,-1.36,2.21,-1.19,88.54,15.56,38.7,0,0,0,0,
-26,50,1364,-4,-3,1,-130,657,-338,265.61,-1.36,2.2,-1.19,88.54,15.56,38.7,0,0,0,0,
-26,50,1364,-4,-3,1,-130,657,-338,265.61,-1.36,2.2,-1.19,88.54,15.56,38.7,0,0,0,0,
-26,50,1364,-4,-3,1,-130,657,-338,265.61,-1.36,2.2,-1.19,88.54,15.56,38.7,0,0,0,0,
-26,53,1365,0,0,1,-130,657,-338,265.61,-1.36,2.2,-1.19,88.54,15.56,38.7,0,0,0,0,
-26,53,1365,0,0,1,-130,657,-338,265.61,-1.36,2.2,-1.19,88.54,15.56,38.7,0,0,0,0,
-26,53,1365,0,0,1,-130,657,-338,265.61,-1.36,2.2,-1.19,88.54,15.56,38.7,0,0,0,0,
-26,54,1366,0,0,1,-130,657,-338,265.61,-1.36,2.2,-1.19,88.54,15.56,38.7,0,0,0,0,
-26,54,1366,0,0,1,-132,655,-334,265.62,-1.36,2.2,-1.19,88.54,15.56,38.7,0,0,0,0,
-26,54,1366,0,0,1,-132,655,-334,265.62,-1.36,2.2,-1.19,88.55,15.56,38.7,0,0,0,0,
-26,54,1366,0,0,1,-132,655,-334,265.62,-1.36,2.2,-1.19,88.55,15.56,38.7,0,0,0,0,
-26,54,1366,0,0,1,-132,655,-334,265.62,-1.36,2.2,-1.19,88.55,15.56,38.7,0,0,0,0,
-25,50,1366,0,-1,1,-132,655,-334,265.62,-1.36,2.2,-1.19,88.55,15.56,38.7,0,0,0,0,
-25,50,1366,0,-1,1,-132,655,-334,265.62,-1.36,2.2,-1.19,88.55,15.56,38.7,0,0,0,0,
-25,50,1366,0,-1,1,-132,655,-334,265.62,-1.36,2.2,-1.19,88.55,15.56,38.7,0,0,0,0,
-25,56,1362,-2,0,0,-132,655,-334,265.62,-1.36,2.2,-1.19,88.55,15.56,38.7,0,0,0,0,
-25,56,1362,-2,0,0,-132,655,-334,265.62,-1.36,2.2,-1.19,88.55,15.56,38.7,0,0,0,0,
-25,50,1364,6,-1,1,-132,655,-334,265.62,-1.36,2.2,-1.19,88.55,15.56,38.7,0,0,0,0,
-25,50,1364,6,-1,1,-135,656,-336,265.63,-1.36,2.2,-1.19,88.55,15.56,38.7,0,0,0,0,
-25,50,1364,6,-1,1,-135,656,-336,265.63,-1.36,2.21,-1.19,88.56,15.56,38.7,0,0,0,0,
-25,50,1364,6,-1,1,-135,656,-336,265.63,-1.37,2.21,-1.19,88.56,15.56,38.7,0,0,0,0,
-25,50,1364,6,-1,1,-135,656,-336,265.63,-1.37,2.21,-1.19,88.56,15.56,38.7,0,0,0,0,
-28,54,1367,0,0,1,-135,656,-336,265.63,-1.37,2.21,-1.19,88.56,15.56,38.7,0,0,0,0,
-28,54,1367,0,0,1,-135,656,-336,265.63,-1.37,2.21,-1.19,88.56,15.56,38.7,0,0,0,0,
-28,54,1367,0,0,1,-135,656,-336,265.63,-1.37,2.21,-1.19,88.56,15.56,38.7,0,0,0,0,
-26,51,1366,-2,-1,-1,-135,656,-336,265.63,-1.37,2.21,-1.19,88.56,15.56,38.7,0,0,0,0,
-26,51,1366,-2,-1,-1,-111,631,-333,265.63,-1.37,2.21,-1.19,88.56,15.56,38.7,0,0,0,0,
-26,51,1366,-2,-1,-1,-111,631,-333,265.63,-1.37,2.2,-1.19,88.56,15.56,38.7,0,0,0,0,
-26,51,1366,-2,-1,-1,-111,631,-333,265.63,-1.37,2.2,-1.19,88.56,15.56,38.7,0,0,0,0,
-26,51,1366,-2,-1,-1,-111,631,-333,265.63,-1.37,2.2,-1.19,88.56,15.56,38.7,0,0,0,0,
-23,54,1364,-1,0,-1,-111,631,-333,265.63,-1.37,2.2,-1.19,88.56,15.56,38.7,0,0,0,0,
-23,54,1364,-1,0,-1,-111,631,-333,265.63,-1.37,2.2,-1.19,88.57,15.56,38.7,0,0,0,0,
-23,54,1364,-1,0,-1,-111,631,-333,265.63,-1.37,2.2,-1.19,88.57,15.56,38.7,0,0,0,0,
-28,51,1364,0,0,0,-111,631,-333,265.63,-1.37,2.2,-1.19,88.57,15.56,38.7,0,0,0,0,
-28,51,1364,0,0,0,-111,631,-333,265.63,-1.37,2.2,-1.19,88.57,15.56,38.7,0,0,0,0,
-25,56,1364,-4,0,2,-111,631,-333,265.63,-1.37,2.2,-1.19,88.57,15.56,38.7,0,0,0,0,
-25,56,1364,-4,0,2,-113,631,-330,265.65,-1.37,2.2,-1.19,88.57,15.56,38.7,0,0,0,0,
-25,56,1364,-4,0,2,-113,631,-330,265.65,-1.37,2.2,-1.19,88.57,15.56,38.7,0,0,0,0,
-25,56,1364,-4,0,2,-113,631,-330,265.65,-1.37,2.2,-1.19,88.57,15.56,38.7,0,0,0,0,
-25,56,1364,-4,0,2,-113,631,-330,265.65,-1.37,2.2,-1.19,88.57,15.56,38.7,0,0,0,0,
-25,56,1364,-4,0,2,-113,631,-330,265.65,-1.37,2.2,-1.19,88.57,15.56,38.7,0,0,0,0,
-25,53,1363,0,0,4,-113,631,-330,265.65,-1.37,2.2,-1.19,88.57,15.56,38.7,0,0,0,0,
-25,53,1363,0,0,4,-113,631,-330,265.65,-1.37,2.2,-1.19,88.57,15.56,38.7,0,0,0,0,
-25,53,1363,0,0,4,-113,631,-330,265.65,-1.37,2.2,-1.19,88.57,15.56,38.7,0,0,0,0,
-23,55,1366,-3,-1,0,-113,631,-330,265.65,-1.37,2.2,-1.19,88.57,15.56,38.7,0,0,0,0,
-23,55,1366,-3,-1,0,-108,632,-334,265.61,-1.37,2.2,-1.19,88.57,15.56,38.7,0,0,0,0,
-23,55,1366,-3,-1,0,-108,632,-334,265.61,-1.37,2.2,-1.19,88.58,15.56,38.7,0,0,0,0,
-23,55,1366,-3,-1,0,-108,632,-334,265.61,-1.37,2.2,-1.19,88.58,15.56,38.7,0,0,0,0,
-23,55,1366,-3,-1,0,-108,632,-334,265.61,-1.37,2.2,-1.19,88.58,15.56,38.7,0,0,0,0,
-23,53,1366,0,0,0,-108,632,-334,265.61,-1.37,2.2,-1.19,88.58,15.56,38.7,0,0,0,0,
-23,53,1366,0,0,0,-108,632,-334,265.61,-1.37,2.2,-1.19,88.58,15.56,38.7,0,0,0,0,
-23,53,1366,0,0,0,-108,632,-334,265.61,-1.37,2.2,-1.19,88.58,15.56,38.7,0,0,0,0,
-29,55,1364,-1,0,1,-108,632,-334,265.61,-1.37,2.2,-1.19,88.58,15.56,38.7,0,0,0,0,
-29,55,1364,-1,0,1,-108,632,-334,265.61,-1.37,2.2,-1.19,88.58,15.56,38.7,0,0,0,0,
-24,53,1365,0,-1,-1,-108,632,-334,265.61,-1.37,2.2,-1.19,88.58,15.56,38.7,0,0,0,0,
-24,53,1365,0,-1,-1,-110,634,-328,265.66,-1.37,2.2,-1.19,88.58,15.56,38.7,0,0,0,0,
-24,53,1365,0,-1,-1,-110,634,-328,265.66,-1.37,2.21,-1.19,88.59,15.56,38.7,0,0,0,0,
-24,53,1365,0,-1,-1,-110,634,-328,265.66,-1.37,2.21,-1.19,88.59,15.56,38.7,0,0,0,0,
-24,53,1365,0,-1,-1,-110,634,-328,265.66,-1.37,2.21,-1.19,88.59,15.56,38.7,0,0,0,0,
-24,53,1366,-3,-1,-2,-110,634,-328,265.66,-1.37,2.21,-1.19,88.59,15.56,38.7,0,0,0,0,
-24,53,1366,-3,-1,-2,-110,634,-328,265.66,-1.37,2.2,-1.19,88.59,15.56,38.7,0,0,0,0,
-24,53,1366,-3,-1,-2,-110,634,-328,265.66,-1.37,2.2,-1.19,88.59,15.56,38.7,0,0,0,0,
-27,53,1366,-3,0,-2,-110,634,-328,265.66,-1.37,2.2,-1.19,88.59,15.56,38.7,0,0,0,0,
-27,53,1366,-3,0,-2,-111,631,-334,265.65,-1.37,2.2,-1.19,88.59,15.56,38.7,0,0,0,0,
-27,53,1366,-3,0,-2,-111,631,-334,265.65,-1.37,2.2,-1.19,88.6,15.56,38.7,0,0,0,0,
-27,53,1366,-3,0,-2,-111,631,-334,265.65,-1.37,2.2,-1.19,88.6,15.56,38.7,0,0,0,0,
-27,53,1366,-3,0,-2,-111,631,-334,265.65,-1.37,2.2,-1.19,88.6,15.56,38.7,0,0,0,0,
-23,54,1365,0,1,1,-111,631,-334,265.65,-1.37,2.2,-1.19,88.6,15.56,38.7,0,0,0,0,
-23,54,1365,0,1,1,-111,631,-334,265.65,-1.37,2.21,-1.18,88.6,15.56,38.7,0,0,0,0,
-23,54,1365,0,1,1,-111,631,-334,265.65,-1.37,2.21,-1.18,88.6,15.56,38.7,0,0,0,0,
-25,51,1365,-2,-3,-1,-111,631,-334,265.65,-1.37,2.21,-1.18,88.6,15.56,38.7,0,0,0,0,
-25,51,1365,-2,-3,-1,-111,631,-334,265.65,-1.37,2.21,-1.18,88.6,15.56,38.7,0,0,0,0,
-26,54,1368,-5,0,-2,-111,631,-334,265.65,-1.37,2.21,-1.18,88.6,15.56,38.7,0,0,0,0,
-26,54,1368,-5,0,-2,-109,635,-351,265.64,-1.37,2.21,-1.18,88.6,15.56,38.7,0,0,0,0,
-26,54,1368,-5,0,-2,-109,635,-351,265.64,-1.37,2.2,-1.18,88.61,15.56,38.7,0,0,0,0,
-26,54,1368,-5,0,-2,-109,635,-351,265.64,-1.37,2.2,-1.18,88.61,15.56,38.7,0,0,0,0,
-26,54,1368,-5,0,-2,-109,635,-351,265.64,-1.37,2.2,-1.18,88.61,15.56,38.7,0,0,0,0,
-25,55,1364,0,0,2,-109,635,-351,265.64,-1.37,2.2,-1.18,88.61,15.56,38.7,0,0,0,0,
-25,55,1364,0,0,2,-109,635,-351,265.64,-1.37,2.2,-1.18,88.61,15.56,38.7,0,0,0,0,
-25,55,1364,0,0,2,-109,635,-351,265.64,-1.37,2.2,-1.18,88.61,15.56,38.7,0,0,0,0,
-27,55,1366,-4,-1,-1,-109,635,-351,265.64,-1.37,2.2,-1.18,88.61,15.56,38.7,0,0,0,0,
-27,55,1366,-4,-1,-1,-113,640,-325,265.63,-1.37,2.2,-1.18,88.61,15.56,38.7,0,0,0,0,
-27,55,1366,-4,-1,-1,-113,640,-325,265.63,-1.37,2.2,-1.18,88.62,15.56,38.7,0,0,0,0,
-27,55,1366,-4,-1,-1,-113,640,-325,265.63,-1.37,2.2,-1.18,88.62,15.56,38.7,0,0,0,0,
-27,55,1366,-4,-1,-1,-113,640,-325,265.63,-1.37,2.2,-1.18,88.62,15.56,38.7,0,0,0,0,
-26,53,1363,-1,0,0,-113,640,-325,265.63,-1.37,2.2,-1.18,88.62,15.56,38.7,0,0,0,0,
-26,53,1363,-1,0,0,-113,640,-325,265.63,-1.37,2.2,-1.18,88.62,15.56,38.7,0,0,0,0,
-26,53,1363,-1,0,0,-113,640,-325,265.63,-1.37,2.2,-1.18,88.62,15.56,38.7,0,0,0,0,
-24,51,1363,3,0,0,-113,640,-325,265.63,-1.37,2.2,-1.18,88.62,15.56,38.7,0,0,0,0,
-24,51,1363,3,0,0,-113,640,-325,265.63,-1.37,2.2,-1.18,88.62,15.56,38.7,0,0,0,0,
-26,51,1364,-2,0,1,-113,640,-325,265.63,-1.37,2.2,-1.18,88.62,15.56,38.7,0,0,0,0,
-26,51,1364,-2,0,1,-114,628,-331,265.66,-1.37,2.2,-1.18,88.62,15.56,38.7,0,0,0,0,
-26,51,1364,-2,0,1,-114,628,-331,265.66,-1.37,2.2,-1.18,88.62,15.56,38.7,0,0,0,0,
-26,51,1364,-2,0,1,-114,628,-331,265.66,-1.37,2.2,-1.18,88.62,15.56,38.7,0,0,0,0,
-26,51,1364,-2,0,1,-114,628,-331,265.66,-1.37,2.2,-1.18,88.62,15.56,38.7,0,0,0,0,
-26,51,1364,-2,0,1,-114,628,-331,265.66,-1.37,2.2,-1.18,88.62,15.56,38.7,0,0,0,0,
-24,54,1367,0,1,-1,-114,628,-331,265.66,-1.37,2.2,-1.18,88.62,15.56,38.7,0,0,0,0,
-24,54,1367,0,1,-1,-114,628,-331,265.66,-1.37,2.2,-1.18,88.62,15.56,38.7,0,0,0,0,
-24,54,1367,0,1,-1,-114,628,-331,265.66,-1.37,2.2,-1.18,88.62,15.56,38.7,0,0,0,0,
-24,54,1366,-3,-1,-1,-114,628,-331,265.66,-1.37,2.2,-1.18,88.62,15.56,38.7,0,0,0,0,
-24,54,1366,-3,-1,-1,-109,633,-334,265.62,-1.37,2.2,-1.18,88.62,15.56,38.7,0,0,0,0,
-24,54,1366,-3,-1,-1,-109,633,-334,265.62,-1.37,2.2,-1.18,88.63,15.56,38.7,0,0,0,0,
-24,54,1366,-3,-1,-1,-109,633,-334,265.62,-1.36,2.2,-1.18,88.63,15.56,38.7,0,0,0,0,
-24,54,1366,-3,-1,-1,-109,633,-334,265.62,-1.36,2.2,-1.18,88.63,15.56,38.7,0,0,0,0,
-26,55,1362,-1,0,-1,-109,633,-334,265.62,-1.36,2.2,-1.18,88.63,15.56,38.7,0,0,0,0,
-26,55,1362,-1,0,-1,-109,633,-334,265.62,-1.36,2.2,-1.18,88.63,15.56,38.7,0,0,0,0,
-26,55,1362,-1,0,-1,-109,633,-334,265.62,-1.36,2.2,-1.18,88.63,15.56,38.7,0,0,0,0,
-25,52,1366,-2,1,0,-109,633,-334,265.62,-1.36,2.2,-1.18,88.63,15.56,38.7,0,0,0,0,
-25,52,1366,-2,1,0,-109,633,-334,265.62,-1.36,2.2,-1.18,88.63,15.56,38.7,0,0,0,0,
-25,53,1366,-2,-1,3,-109,633,-334,265.62,-1.36,2.2,-1.18,88.63,15.56,38.7,0,0,0,0,
-25,53,1366,-2,-1,3,-110,632,-335,265.64,-1.36,2.2,-1.18,88.63,15.56,38.7,0,0,0,0,
-25,53,1366,-2,-1,3,-110,632,-335,265.64,-1.36,2.19,-1.18,88.64,15.56,38.7,0,0,0,0,
-25,53,1366,-2,-1,3,-110,632,-335,265.64,-1.36,2.19,-1.18,88.64,15.56,38.7,0,0,0,0,
-25,53,1366,-2,-1,3,-110,632,-335,265.64,-1.36,2.19,-1.18,88.64,15.56,38.7,0,0,0,0,
-24,54,1361,-6,-1,-1,-110,632,-335,265.64,-1.36,2.19,-1.18,88.64,15.56,38.7,0,0,0,0,
-24,54,1361,-6,-1,-1,-110,632,-335,265.64,-1.36,2.19,-1.18,88.64,15.56,38.7,0,0,0,0,
-24,54,1361,-6,-1,-1,-110,632,-335,265.64,-1.36,2.19,-1.18,88.64,15.56,38.7,0,0,0,0,
-23,52,1364,-1,0,0,-110,632,-335,265.64,-1.36,2.19,-1.18,88.64,15.56,38.7,0,0,0,0,
-23,52,1364,-1,0,0,-110,634,-330,265.66,-1.36,2.19,-1.18,88.64,15.56,38.7,0,0,0,0,
-23,52,1364,-1,0,0,-110,634,-330,265.66,-1.36,2.19,-1.19,88.64,15.56,38.7,0,0,0,0,
-23,52,1364,-1,0,0,-110,634,-330,265.66,-1.36,2.19,-1.19,88.64,15.56,38.7,0,0,0,0,
-23,52,1364,-1,0,0,-110,634,-330,265.66,-1.36,2.19,-1.19,88.64,15.56,38.7,0,0,0,0,
-26,55,1364,-2,0,0,-110,634,-330,265.66,-1.36,2.19,-1.19,88.64,15.56,38.7,0,0,0,0,
-26,55,1364,-2,0,0,-110,634,-330,265.66,-1.36,2.19,-1.18,88.65,15.56,38.7,0,0,0,0,
-26,55,1364,-2,0,0,-110,634,-330,265.66,-1.36,2.19,-1.18,88.65,15.56,38.7,0,0,0,0,
-23,53,1366,-1,-1,3,-110,634,-330,265.66,-1.36,2.19,-1.18,88.65,15.56,38.7,0,0,0,0,
-23,53,1366,-1,-1,3,-110,634,-330,265.66,-1.36,2.19,-1.18,88.65,15.56,38.7,0,0,0,0,
-26,54,1367,1,1,0,-110,634,-330,265.66,-1.36,2.19,-1.18,88.65,15.56,38.7,0,0,0,0,
-26,54,1367,1,1,0,-111,632,-331,265.64,-1.36,2.19,-1.18,88.65,15.56,38.7,0,0,0,0,
-26,54,1367,1,1,0,-111,632,-331,265.64,-1.36,2.19,-1.19,88.65,15.56,38.7,0,0,0,0,
-26,54,1367,1,1,0,-111,632,-331,265.64,-1.36,2.19,-1.19,88.65,15.56,38.7,0,0,0,0,
-26,54,1367,1,1,0,-111,632,-331,265.64,-1.36,2.19,-1.19,88.65,15.56,38.7,0,0,0,0,
-26,54,1362,-3,2,0,-111,632,-331,265.64,-1.36,2.19,-1.19,88.65,15.56,38.7,0,0,0,0,
-26,54,1362,-3,2,0,-111,632,-331,265.64,-1.36,2.19,-1.18,88.65,15.56,38.7,0,0,0,0,
-26,54,1362,-3,2,0,-111,632,-331,265.64,-1.36,2.19,-1.18,88.65,15.56,38.7,0,0,0,0,
-26,54,1366,1,0,-1,-111,632,-331,265.64,-1.36,2.19,-1.18,88.65,15.56,38.7,0,0,0,0,
-26,54,1366,1,0,-1,-125,645,-339,265.66,-1.36,2.19,-1.18,88.65,15.56,38.7,0,0,0,0,
-26,54,1366,1,0,-1,-125,645,-339,265.66,-1.36,2.19,-1.18,88.65,15.56,38.7,0,0,0,0,
-26,54,1366,1,0,-1,-125,645,-339,265.66,-1.36,2.19,-1.18,88.65,15.56,38.7,0,0,0,0,
-26,54,1366,1,0,-1,-125,645,-339,265.66,-1.36,2.19,-1.18,88.65,15.56,38.7,0,0,0,0,
-25,54,1366,-2,-1,-1,-125,645,-339,265.66,-1.36,2.19,-1.18,88.65,15.56,38.7,0,0,0,0,
-25,54,1366,-2,-1,-1,-125,645,-339,265.66,-1.36,2.19,-1.18,88.66,15.56,38.7,0,0,0,0,
-25,54,1366,-2,-1,-1,-125,645,-339,265.66,-1.36,2.19,-1.18,88.66,15.56,38.7,0,0,0,0,
-26,53,1364,1,1,1,-125,645,-339,265.66,-1.36,2.19,-1.18,88.66,15.56,38.7,0,0,0,0,
-26,53,1364,1,1,1,-125,645,-339,265.66,-1.36,2.19,-1.18,88.66,15.56,38.7,0,0,0,0,
-26,51,1366,4,2,2,-125,645,-339,265.66,-1.36,2.19,-1.18,88.66,15.56,38.7,0,0,0,0,
-26,51,1366,4,2,2,-122,643,-344,265.6,-1.36,2.19,-1.18,88.66,15.56,38.7,0,0,0,0,
-26,51,1366,4,2,2,-122,643,-344,265.6,-1.36,2.19,-1.19,88.66,15.56,38.7,0,0,0,0,
-26,51,1366,4,2,2,-122,643,-344,265.6,-1.36,2.19,-1.19,88.66,15.56,38.7,0,0,0,0,
-26,51,1366,4,2,2,-122,643,-344,265.6,-1.36,2.19,-1.19,88.66,15.55,38.7,0,0,0,0,
-26,51,1366,4,2,2,-122,643,-344,265.6,-1.36,2.19,-1.19,88.66,15.55,38.7,0,0,0,0,
-29,55,1364,-3,-1,0,-122,643,-344,265.6,-1.36,2.19,-1.19,88.66,15.55,38.7,0,0,0,0,
-29,55,1364,-3,-1,0,-122,643,-344,265.6,-1.36,2.19,-1.18,88.66,15.55,38.7,0,0,0,0,
-29,55,1364,-3,-1,0,-122,643,-344,265.6,-1.36,2.19,-1.18,88.66,15.55,38.7,0,0,0,0,
-24,51,1367,-7,0,0,-122,643,-344,265.6,-1.36,2.19,-1.18,88.66,15.55,38.7,0,0,0,0,
-24,51,1367,-7,0,0,-124,642,-327,265.65,-1.36,2.19,-1.18,88.66,15.55,38.7,0,0,0,0,
-24,51,1367,-7,0,0,-124,642,-327,265.65,-1.36,2.19,-1.18,88.66,15.55,38.7,0,0,0,0,
-24,51,1367,-7,0,0,-124,642,-327,265.65,-1.36,2.19,-1.18,88.66,15.55,38.7,0,0,0,0,
-24,51,1367,-7,0,0,-124,642,-327,265.65,-1.36,2.19,-1.18,88.66,15.55,38.7,0,0,0,0,
-27,54,1365,-1,0,1,-124,642,-327,265.65,-1.36,2.19,-1.18,88.66,15.55,38.7,0,0,0,0,
-27,54,1365,-1,0,1,-124,642,-327,265.65,-1.36,2.18,-1.18,88.67,15.55,38.7,0,0,0,0,
-27,54,1365,-1,0,1,-124,642,-327,265.65,-1.36,2.18,-1.18,88.67,15.55,38.7,0,0,0,0,
-25,51,1369,-1,0,-3,-124,642,-327,265.65,-1.36,2.18,-1.18,88.67,15.55,38.7,0,0,0,0,
-25,51,1369,-1,0,-3,-124,642,-327,265.65,-1.36,2.18,-1.18,88.67,15.55,38.7,0,0,0,0,
-25,51,1366,-2,-1,0,-124,642,-327,265.65,-1.36,2.18,-1.18,88.67,15.55,38.7,0,0,0,0,
-25,51,1366,-2,-1,0,-123,643,-327,265.62,-1.36,2.18,-1.18,88.67,15.55,38.7,0,0,0,0,
-25,51,1366,-2,-1,0,-123,643,-327,265.62,-1.36,2.18,-1.18,88.67,15.55,38.7,0,0,0,0,
-25,51,1366,-2,-1,0,-123,643,-327,265.62,-1.36,2.18,-1.18,88.67,15.55,38.7,0,0,0,0,
-25,51,1366,-2,-1,0,-123,643,-327,265.62,-1.36,2.18,-1.18,88.67,15.55,38.7,0,0,0,0,
-25,52,1363,-6,1,-4,-123,643,-327,265.62,-1.36,2.18,-1.18,88.67,15.55,38.7,0,0,0,0,
-25,52,1363,-6,1,-4,-123,643,-327,265.62,-1.36,2.18,-1.18,88.67,15.55,38.7,0,0,0,0,
-25,52,1363,-6,1,-4,-123,643,-327,265.62,-1.36,2.18,-1.18,88.67,15.55,38.7,0,0,0,0,
-24,53,1362,-1,1,1,-123,643,-327,265.62,-1.36,2.18,-1.18,88.67,15.55,38.7,0,0,0,0,
-24,53,1362,-1,1,1,-121,642,-342,265.65,-1.36,2.18,-1.18,88.67,15.55,38.7,0,0,0,0,
-24,53,1362,-1,1,1,-121,642,-342,265.65,-1.36,2.18,-1.18,88.68,15.55,38.7,0,0,0,0,
-24,53,1362,-1,1,1,-121,642,-342,265.65,-1.36,2.18,-1.18,88.68,15.55,38.7,0,0,0,0,
-24,53,1362,-1,1,1,-121,642,-342,265.65,-1.36,2.18,-1.18,88.68,15.55,38.7,0,0,0,0,
-22,55,1364,0,-1,0,-121,642,-342,265.65,-1.36,2.18,-1.18,88.68,15.55,38.7,0,0,0,0,
-22,55,1364,0,-1,0,-121,642,-342,265.65,-1.36,2.18,-1.18,88.68,15.55,38.7,0,0,0,0,
-22,55,1364,0,-1,0,-121,642,-342,265.65,-1.36,2.18,-1.18,88.68,15.55,38.7,0,0,0,0,
-22,55,1365,-2,-3,-2,-121,642,-342,265.65,-1.36,2.18,-1.18,88.68,15.55,38.7,0,0,0,0,
-22,55,1365,-2,-3,-2,-121,642,-342,265.65,-1.36,2.18,-1.18,88.68,15.55,38.7,0,0,0,0,
-26,52,1365,-2,1,-1,-121,642,-342,265.65,-1.36,2.18,-1.18,88.68,15.55,38.7,0,0,0,0,
-26,52,1365,-2,1,-1,-125,645,-332,265.66,-1.36,2.18,-1.18,88.68,15.55,38.7,0,0,0,0,
-26,52,1365,-2,1,-1,-125,645,-332,265.66,-1.36,2.18,-1.18,88.69,15.55,38.7,0,0,0,0,
-26,52,1365,-2,1,-1,-125,645,-332,265.66,-1.36,2.18,-1.18,88.69,15.55,38.7,0,0,0,0,
-26,52,1365,-2,1,-1,-125,645,-332,265.66,-1.36,2.18,-1.18,88.69,15.55,38.7,0,0,0,0,
-26,54,1366,0,0,-2,-125,645,-332,265.66,-1.36,2.18,-1.18,88.69,15.55,38.7,0,0,0,0,
-26,54,1366,0,0,-2,-125,645,-332,265.66,-1.36,2.18,-1.18,88.69,15.55,38.7,0,0,0,0,
-26,54,1366,0,0,-2,-125,645,-332,265.66,-1.36,2.18,-1.18,88.69,15.55,38.7,0,0,0,0,
-25,55,1363,-2,0,1,-125,645,-332,265.66,-1.36,2.18,-1.18,88.69,15.55,38.7,0,0,0,0,
-25,55,1363,-2,0,1,-123,646,-335,265.65,-1.36,2.18,-1.18,88.69,15.55,38.7,0,0,0,0,
-25,55,1363,-2,0,1,-123,646,-335,265.65,-1.36,2.18,-1.18,88.69,15.55,38.7,0,0,0,0,
-25,55,1363,-2,0,1,-123,646,-335,265.65,-1.36,2.18,-1.18,88.69,15.55,38.7,0,0,0,0,
-25,55,1363,-2,0,1,-123,646,-335,265.65,-1.36,2.18,-1.18,88.69,15.55,38.7,0,0,0,0,
-25,54,1360,-2,0,0,-123,646,-335,265.65,-1.36,2.18,-1.18,88.69,15.55,38.7,0,0,0,0,
-25,54,1360,-2,0,0,-123,646,-335,265.65,-1.36,2.18,-1.18,88.69,15.55,38.7,0,0,0,0,
-25,54,1360,-2,0,0,-123,646,-335,265.65,-1.36,2.18,-1.18,88.69,15.55,38.7,0,0,0,0,
-26,51,1367,-2,1,0,-123,646,-335,265.65,-1.36,2.18,-1.18,88.69,15.55,38.7,0,0,0,0,
-26,51,1367,-2,1,0,-123,646,-335,265.65,-1.36,2.18,-1.18,88.69,15.55,38.7,0,0,0,0,
-26,55,1362,-5,0,0,-123,646,-335,265.65,-1.36,2.18,-1.18,88.69,15.55,38.7,0,0,0,0,
-26,55,1362,-5,0,0,-126,636,-336,265.64,-1.36,2.18,-1.18,88.69,15.55,38.7,0,0,0,0,
-26,55,1362,-5,0,0,-126,636,-336,265.64,-1.36,2.18,-1.18,88.7,15.55,38.7,0,0,0,0,
-26,55,1362,-5,0,0,-126,636,-336,265.64,-1.36,2.18,-1.18,88.7,15.55,38.7,0,0,0,0,
-26,55,1362,-5,0,0,-126,636,-336,265.64,-1.36,2.18,-1.18,88.7,15.55,38.7,0,0,0,0,
-26,55,1362,-5,0,0,-126,636,-336,265.64,-1.36,2.18,-1.18,88.7,15.55,38.7,0,0,0,0,
-27,54,1368,-4,-1,4,-126,636,-336,265.64,-1.36,2.18,-1.18,88.7,15.55,38.7,0,0,0,0,
-27,54,1368,-4,-1,4,-126,636,-336,265.64,-1.36,2.17,-1.18,88.7,15.55,38.7,0,0,0,0,
-27,54,1368,-4,-1,4,-126,636,-336,265.64,-1.36,2.17,-1.18,88.7,15.55,38.7,0,0,0,0,
-24,54,1363,-2,0,0,-126,636,-336,265.64,-1.36,2.17,-1.18,88.7,15.55,38.7,0,0,0,0,
-24,54,1363,-2,0,0,-122,639,-332,265.68,-1.36,2.17,-1.18,88.7,15.55,38.7,0,0,0,0,
-24,54,1363,-2,0,0,-122,639,-332,265.68,-1.36,2.17,-1.18,88.71,15.55,38.7,0,0,0,0,
-24,54,1363,-2,0,0,-122,639,-332,265.68,-1.36,2.17,-1.18,88.71,15.55,38.7,0,0,0,0,
-24,54,1363,-2,0,0,-122,639,-332,265.68,-1.36,2.17,-1.18,88.71,15.55,38.7,0,0,0,0,
-23,52,1363,0,-2,0,-122,639,-332,265.68,-1.36,2.17,-1.18,88.71,15.55,38.7,0,0,0,0,
-23,52,1363,0,-2,0,-122,639,-332,265.68,-1.36,2.17,-1.18,88.71,15.55,38.7,0,0,0,0,
-23,52,1363,0,-2,0,-122,639,-332,265.68,-1.36,2.17,-1.18,88.71,15.55,38.7,0,0,0,0,
-26,55,1364,0,2,1,-122,639,-332,265.68,-1.36,2.17,-1.18,88.71,15.55,38.7,0,0,0,0,
-26,55,1364,0,2,1,-122,639,-332,265.68,-1.36,2.17,-1.18,88.71,15.55,38.7,0,0,0,0,
-22,51,1366,1,0,3,-122,639,-332,265.68,-1.36,2.17,-1.18,88.71,15.55,38.7,0,0,0,0,
-22,51,1366,1,0,3,-126,646,-332,265.67,-1.36,2.17,-1.18,88.71,15.55,38.7,0,0,0,0,
-22,51,1366,1,0,3,-126,646,-332,265.67,-1.36,2.17,-1.18,88.71,15.55,38.7,0,0,0,0,
-22,51,1366,1,0,3,-126,646,-332,265.67,-1.36,2.17,-1.18,88.71,15.55,38.7,0,0,0,0,
-22,51,1366,1,0,3,-126,646,-332,265.67,-1.36,2.17,-1.18,88.71,15.55,38.7,0,0,0,0,
-24,55,1365,0,0,1,-126,646,-332,265.67,-1.36,2.17,-1.18,88.71,15.55,38.7,0,0,0,0,
-24,55,1365,0,0,1,-126,646,-332,265.67,-1.36,2.17,-1.18,88.71,15.55,38.7,0,0,0,0,
-24,55,1365,0,0,1,-126,646,-332,265.67,-1.36,2.17,-1.18,88.71,15.55,38.7,0,0,0,0,
-24,56,1369,2,1,0,-126,646,-332,265.67,-1.36,2.17,-1.18,88.71,15.55,38.7,0,0,0,0,
-24,56,1369,2,1,0,-110,629,-331,265.67,-1.36,2.17,-1.18,88.71,15.55,38.7,0,0,0,0,
-24,56,1369,2,1,0,-110,629,-331,265.67,-1.36,2.17,-1.18,88.72,15.55,38.7,0,0,0,0,
-24,56,1369,2,1,0,-110,629,-331,265.67,-1.36,2.17,-1.18,88.72,15.55,38.7,0,0,0,0,
-24,56,1369,2,1,0,-110,629,-331,265.67,-1.36,2.17,-1.18,88.72,15.55,38.7,0,0,0,0,
-23,51,1364,-2,0,-1,-110,629,-331,265.67,-1.36,2.17,-1.18,88.72,15.55,38.7,0,0,0,0,
-23,51,1364,-2,0,-1,-110,629,-331,265.67,-1.36,2.17,-1.18,88.72,15.55,38.7,0,0,0,0,
-23,51,1364,-2,0,-1,-110,629,-331,265.67,-1.36,2.17,-1.18,88.72,15.55,38.7,0,0,0,0,
-22,50,1365,2,0,0,-110,629,-331,265.67,-1.36,2.17,-1.18,88.72,15.55,38.7,0,0,0,0,
-22,50,1365,2,0,0,-110,629,-331,265.67,-1.36,2.17,-1.18,88.72,15.55,38.7,0,0,0,0,
-23,53,1365,-6,0,-1,-110,629,-331,265.67,-1.36,2.17,-1.18,88.72,15.55,38.7,0,0,0,0,
-23,53,1365,-6,0,-1,-113,627,-320,265.64,-1.36,2.17,-1.18,88.72,15.55,38.7,0,0,0,0,
-23,53,1365,-6,0,-1,-113,627,-320,265.64,-1.36,2.17,-1.18,88.72,15.55,38.7,0,0,0,0,
-23,53,1365,-6,0,-1,-113,627,-320,265.64,-1.36,2.17,-1.18,88.72,15.55,38.7,0,0,0,0,
-23,53,1365,-6,0,-1,-113,627,-320,265.64,-1.36,2.17,-1.18,88.72,15.55,38.7,0,0,0,0,
-25,56,1364,-1,1,2,-113,627,-320,265.64,-1.36,2.17,-1.18,88.72,15.55,38.7,0,0,0,0,
-25,56,1364,-1,1,2,-113,627,-320,265.64,-1.36,2.18,-1.18,88.72,15.55,38.7,0,0,0,0,
-25,56,1364,-1,1,2,-113,627,-320,265.64,-1.36,2.18,-1.18,88.72,15.55,38.7,0,0,0,0,
-25,54,1362,0,1,1,-113,627,-320,265.64,-1.36,2.18,-1.18,88.72,15.55,38.7,0,0,0,0,
-25,54,1362,0,1,1,-130,654,-340,265.62,-1.36,2.18,-1.18,88.72,15.55,38.7,0,0,0,0,
-25,54,1362,0,1,1,-130,654,-340,265.62,-1.36,2.18,-1.18,88.73,15.55,38.7,0,0,0,0,
-25,54,1362,0,1,1,-130,654,-340,265.62,-1.36,2.18,-1.18,88.73,15.55,38.7,0,0,0,0,
-25,54,1362,0,1,1,-130,654,-340,265.62,-1.36,2.18,-1.18,88.73,15.55,38.7,0,0,0,0,
-25,50,1366,-5,-1,-2,-130,654,-340,265.62,-1.36,2.18,-1.18,88.73,15.55,38.7,0,0,0,0,
-25,50,1366,-5,-1,-2,-130,654,-340,265.62,-1.36,2.18,-1.18,88.73,15.55,38.7,0,0,0,0,
-25,50,1366,-5,-1,-2,-130,654,-340,265.62,-1.36,2.18,-1.18,88.73,15.55,38.7,0,0,0,0,
-24,58,1365,0,0,0,-130,654,-340,265.62,-1.36,2.18,-1.18,88.73,15.55,38.7,0,0,0,0,
-24,58,1365,0,0,0,-130,654,-340,265.62,-1.36,2.18,-1.18,88.73,15.55,38.7,0,0,0,0,
-26,55,1362,-1,0,-2,-130,654,-340,265.62,-1.36,2.18,-1.18,88.73,15.55,38.7,0,0,0,0,
-26,55,1362,-1,0,-2,-133,654,-331,265.63,-1.36,2.18,-1.18,88.73,15.55,38.7,0,0,0,0,
-26,55,1362,-1,0,-2,-133,654,-331,265.63,-1.36,2.18,-1.18,88.74,15.55,38.7,0,0,0,0,
-26,55,1362,-1,0,-2,-133,654,-331,265.63,-1.36,2.18,-1.18,88.74,15.55,38.7,0,0,0,0,
-26,55,1362,-1,0,-2,-133,654,-331,265.63,-1.36,2.18,-1.18,88.74,15.55,38.7,0,0,0,0,
-26,55,1362,-1,0,-2,-133,654,-331,265.63,-1.36,2.18,-1.18,88.74,15.55,38.7,0,0,0,0,
-25,53,1365,2,-2,-1,-133,654,-331,265.63,-1.36,2.18,-1.18,88.74,15.55,38.7,0,0,0,0,
-25,53,1365,2,-2,-1,-133,654,-331,265.63,-1.36,2.18,-1.18,88.74,15.55,38.7,0,0,0,0,
-25,53,1365,2,-2,-1,-133,654,-331,265.63,-1.36,2.18,-1.18,88.74,15.55,38.7,0,0,0,0,
-24,54,1365,0,0,0,-133,654,-331,265.63,-1.36,2.18,-1.18,88.74,15.55,38.7,0,0,0,0,
-24,54,1365,0,0,0,-131,650,-338,265.64,-1.36,2.18,-1.18,88.74,15.55,38.7,0,0,0,0,
-24,54,1365,0,0,0,-131,650,-338,265.64,-1.36,2.18,-1.18,88.74,15.55,38.7,0,0,0,0,
-24,54,1365,0,0,0,-131,650,-338,265.64,-1.35,2.18,-1.18,88.74,15.55,38.7,0,0,0,0,
-24,54,1365,0,0,0,-131,650,-338,265.64,-1.35,2.18,-1.18,88.74,15.55,38.7,0,0,0,0,
-25,52,1365,-3,-1,0,-131,650,-338,265.64,-1.35,2.18,-1.18,88.74,15.55,38.7,0,0,0,0,
-25,52,1365,-3,-1,0,-131,650,-338,265.64,-1.35,2.18,-1.17,88.75,15.55,38.7,0,0,0,0,
-25,52,1365,-3,-1,0,-131,650,-338,265.64,-1.35,2.18,-1.17,88.75,15.55,38.7,0,0,0,0,
-25,51,1365,1,1,-2,-131,650,-338,265.64,-1.35,2.18,-1.17,88.75,15.55,38.7,0,0,0,0,
-25,51,1365,1,1,-2,-131,650,-338,265.64,-1.35,2.18,-1.17,88.75,15.55,38.7,0,0,0,0,
-26,54,1364,-1,3,2,-131,650,-338,265.64,-1.35,2.18,-1.17,88.75,15.55,38.7,0,0,0,0,
-26,54,1364,-1,3,2,-133,653,-328,265.66,-1.35,2.18,-1.17,88.75,15.55,38.7,0,0,0,0,
-26,54,1364,-1,3,2,-133,653,-328,265.66,-1.35,2.18,-1.18,88.75,15.55,38.7,0,0,0,0,
-26,54,1364,-1,3,2,-133,653,-328,265.66,-1.35,2.18,-1.18,88.75,15.55,38.7,0,0,0,0,
-26,54,1364,-1,3,2,-133,653,-328,265.66,-1.35,2.18,-1.18,88.75,15.55,38.7,0,0,0,0,
-25,53,1367,0,-1,-2,-133,653,-328,265.66,-1.35,2.18,-1.18,88.75,15.55,38.7,0,0,0,0,
-25,53,1367,0,-1,-2,-133,653,-328,265.66,-1.35,2.18,-1.18,88.76,15.55,38.7,0,0,0,0,
-25,53,1367,0,-1,-2,-133,653,-328,265.66,-1.35,2.18,-1.18,88.76,15.55,38.7,0,0,0,0,
-27,56,1362,-2,0,-1,-133,653,-328,265.66,-1.35,2.18,-1.18,88.76,15.55,38.7,0,0,0,0,
-27,56,1362,-2,0,-1,-132,652,-328,265.64,-1.35,2.18,-1.18,88.76,15.55,38.7,0,0,0,0,
-27,56,1362,-2,0,-1,-132,652,-328,265.64,-1.35,2.18,-1.18,88.76,15.55,38.7,0,0,0,0,
-27,56,1362,-2,0,-1,-132,652,-328,265.64,-1.35,2.18,-1.18,88.76,15.55,38.7,0,0,0,0,
-27,56,1362,-2,0,-1,-132,652,-328,265.64,-1.35,2.18,-1.18,88.76,15.55,38.7,0,0,0,0,
-26,55,1365,-2,-1,0,-132,652,-328,265.64,-1.35,2.18,-1.18,88.76,15.55,38.7,0,0,0,0,
-26,55,1365,-2,-1,0,-132,652,-328,265.64,-1.35,2.18,-1.18,88.76,15.55,38.7,0,0,0,0,
-26,55,1365,-2,-1,0,-132,652,-328,265.64,-1.35,2.18,-1.18,88.76,15.55,38.7,0,0,0,0,
-25,50,1361,-2,1,0,-132,652,-328,265.64,-1.35,2.18,-1.18,88.76,15.55,38.7,0,0,0,0,
-25,50,1361,-2,1,0,-132,652,-328,265.64,-1.35,2.18,-1.18,88.76,15.55,38.7,0,0,0,0,
-25,54,1368,-5,-1,0,-132,652,-328,265.64,-1.35,2.18,-1.18,88.76,15.55,38.7,0,0,0,0,
-25,54,1368,-5,-1,0,-128,654,-335,265.64,-1.35,2.18,-1.18,88.76,15.55,38.7,0,0,0,0,
-25,54,1368,-5,-1,0,-128,654,-335,265.64,-1.35,2.17,-1.18,88.76,15.55,38.7,0,0,0,0,
-25,54,1368,-5,-1,0,-128,654,-335,265.64,-1.35,2.17,-1.18,88.76,15.55,38.7,0,0,0,0,
-25,54,1368,-5,-1,0,-128,654,-335,265.64,-1.35,2.17,-1.18,88.76,15.55,38.7,0,0,0,0,
-24,52,1363,0,1,0,-128,654,-335,265.64,-1.35,2.17,-1.18,88.76,15.55,38.7,0,0,0,0,
-24,52,1363,0,1,0,-128,654,-335,265.64,-1.35,2.18,-1.18,88.77,15.55,38.7,0,0,0,0,
-24,52,1363,0,1,0,-128,654,-335,265.64,-1.35,2.18,-1.18,88.77,15.55,38.7,0,0,0,0,
-23,53,1368,0,2,0,-128,654,-335,265.64,-1.35,2.18,-1.18,88.77,15.55,38.7,0,0,0,0,
-23,53,1368,0,2,0,-130,647,-338,265.67,-1.35,2.18,-1.18,88.77,15.55,38.7,0,0,0,0,
-23,53,1368,0,2,0,-130,647,-338,265.67,-1.35,2.18,-1.18,88.77,15.55,38.7,0,0,0,0,
-23,53,1368,0,2,0,-130,647,-338,265.67,-1.35,2.18,-1.18,88.77,15.55,38.7,0,0,0,0,
-23,53,1368,0,2,0,-130,647,-338,265.67,-1.35,2.18,-1.18,88.77,15.55,38.7,0,0,0,0,
-23,53,1364,-4,0,-1,-130,647,-338,265.67,-1.35,2.18,-1.18,88.77,15.55,38.7,0,0,0,0,
-23,53,1364,-4,0,-1,-130,647,-338,265.67,-1.35,2.18,-1.18,88.77,15.55,38.7,0,0,0,0,
-23,53,1364,-4,0,-1,-130,647,-338,265.67,-1.35,2.18,-1.18,88.77,15.55,38.7,0,0,0,0,
-23,52,1366,0,-2,0,-130,647,-338,265.67,-1.35,2.18,-1.18,88.77,15.55,38.7,0,0,0,0,
-23,52,1366,0,-2,0,-130,647,-338,265.67,-1.35,2.18,-1.18,88.77,15.55,38.7,0,0,0,0,
-25,54,1363,0,-1,0,-130,647,-338,265.67,-1.35,2.18,-1.18,88.77,15.55,38.7,0,0,0,0,
-25,54,1363,0,-1,0,-135,647,-336,265.63,-1.35,2.18,-1.18,88.77,15.55,38.7,0,0,0,0,
-25,54,1363,0,-1,0,-135,647,-336,265.63,-1.35,2.18,-1.18,88.77,15.55,38.7,0,0,0,0,
-25,54,1363,0,-1,0,-135,647,-336,265.63,-1.35,2.18,-1.18,88.77,15.55,38.7,0,0,0,0,
-25,54,1363,0,-1,0,-135,647,-336,265.63,-1.35,2.18,-1.18,88.77,15.55,38.7,0,0,0,0,
-25,54,1363,0,-1,0,-135,647,-336,265.63,-1.35,2.18,-1.18,88.77,15.55,38.7,0,0,0,0,
-25,55,1366,1,0,0,-135,647,-336,265.63,-1.35,2.18,-1.18,88.77,15.55,38.7,0,0,0,0,
-25,55,1366,1,0,0,-135,647,-336,265.63,-1.35,2.18,-1.18,88.78,15.55,38.7,0,0,0,0,
-25,55,1366,1,0,0,-135,647,-336,265.63,-1.35,2.18,-1.18,88.78,15.55,38.7,0,0,0,0,
-29,52,1362,-2,1,0,-135,647,-336,265.63,-1.35,2.18,-1.18,88.78,15.55,38.7,0,0,0,0,
-29,52,1362,-2,1,0,-131,656,-332,265.63,-1.35,2.18,-1.18,88.78,15.55,38.7,0,0,0,0,
-29,52,1362,-2,1,0,-131,656,-332,265.63,-1.35,2.18,-1.18,88.78,15.55,38.7,0,0,0,0,
-29,52,1362,-2,1,0,-131,656,-332,265.63,-1.35,2.18,-1.18,88.78,15.55,38.7,0,0,0,0,
-29,52,1362,-2,1,0,-131,656,-332,265.63,-1.35,2.18,-1.18,88.78,15.55,38.7,0,0,0,0,
-22,51,1364,0,0,-1,-131,656,-332,265.63,-1.35,2.18,-1.18,88.78,15.55,38.7,0,0,0,0,
-22,51,1364,0,0,-1,-131,656,-332,265.63,-1.35,2.18,-1.18,88.78,15.55,38.7,0,0,0,0,
-22,51,1364,0,0,-1,-131,656,-332,265.63,-1.35,2.18,-1.18,88.78,15.55,38.7,0,0,0,0,
-27,54,1365,-4,2,0,-131,656,-332,265.63,-1.35,2.18,-1.18,88.78,15.55,38.7,0,0,0,0,
-27,54,1365,-4,2,0,-131,656,-332,265.63,-1.35,2.18,-1.18,88.78,15.55,38.7,0,0,0,0,
-29,55,1363,-4,0,1,-131,656,-332,265.63,-1.35,2.18,-1.18,88.78,15.55,38.7,0,0,0,0,
-29,55,1363,-4,0,1,-131,648,-341,265.61,-1.35,2.18,-1.18,88.78,15.55,38.7,0,0,0,0,
-29,55,1363,-4,0,1,-131,648,-341,265.61,-1.35,2.18,-1.18,88.79,15.55,38.7,0,0,0,0,
-29,55,1363,-4,0,1,-131,648,-341,265.61,-1.35,2.18,-1.18,88.79,15.55,38.7,0,0,0,0,
-29,55,1363,-4,0,1,-131,648,-341,265.61,-1.35,2.18,-1.18,88.79,15.55,38.7,0,0,0,0,
-25,52,1364,1,0,0,-131,648,-341,265.61,-1.35,2.18,-1.18,88.79,15.55,38.7,0,0,0,0,
-25,52,1364,1,0,0,-131,648,-341,265.61,-1.35,2.18,-1.18,88.79,15.55,38.7,0,0,0,0,
-25,52,1364,1,0,0,-131,648,-341,265.61,-1.35,2.18,-1.18,88.79,15.55,38.7,0,0,0,0,
-25,52,1363,2,0,0,-131,648,-341,265.61,-1.35,2.18,-1.18,88.79,15.55,38.7,0,0,0,0,
-25,52,1363,2,0,0,-114,641,-335,265.61,-1.35,2.18,-1.18,88.79,15.55,38.7,0,0,0,0,
-25,52,1363,2,0,0,-114,641,-335,265.61,-1.35,2.18,-1.18,88.79,15.55,38.7,0,0,0,0,
-25,52,1363,2,0,0,-114,641,-335,265.61,-1.35,2.18,-1.18,88.79,15.55,38.7,0,0,0,0,
-25,52,1363,2,0,0,-114,641,-335,265.61,-1.35,2.18,-1.18,88.79,15.55,38.7,0,0,0,0,
-25,51,1364,1,1,1,-114,641,-335,265.61,-1.35,2.18,-1.18,88.79,15.55,38.7,0,0,0,0,
-25,51,1364,1,1,1,-114,641,-335,265.61,-1.35,2.18,-1.18,88.79,15.55,38.7,0,0,0,0,
-25,51,1364,1,1,1,-114,641,-335,265.61,-1.35,2.18,-1.18,88.79,15.55,38.7,0,0,0,0,
-25,53,1364,-2,0,3,-114,641,-335,265.61,-1.35,2.18,-1.18,88.79,15.55,38.7,0,0,0,0,
-25,53,1364,-2,0,3,-114,641,-335,265.61,-1.35,2.18,-1.18,88.79,15.55,38.7,0,0,0,0,
-23,51,1362,0,0,2,-114,641,-335,265.61,-1.35,2.18,-1.18,88.79,15.55,38.7,0,0,0,0,
-23,51,1362,0,0,2,-112,637,-345,265.61,-1.35,2.18,-1.18,88.79,15.55,38.7,0,0,0,0,
-23,51,1362,0,0,2,-112,637,-345,265.61,-1.35,2.18,-1.17,88.8,15.55,38.7,0,0,0,0,
-23,51,1362,0,0,2,-112,637,-345,265.61,-1.36,2.18,-1.17,88.8,15.55,38.7,0,0,0,0,
-23,51,1362,0,0,2,-112,637,-345,265.61,-1.36,2.18,-1.17,88.8,15.55,38.7,0,0,0,0,
-24,53,1365,5,-1,0,-112,637,-345,265.61,-1.36,2.18,-1.17,88.8,15.55,38.7,0,0,0,0,
-24,53,1365,5,-1,0,-112,637,-345,265.61,-1.36,2.18,-1.17,88.8,15.55,38.7,0,0,0,0,
-24,53,1365,5,-1,0,-112,637,-345,265.61,-1.36,2.18,-1.17,88.8,15.55,38.7,0,0,0,0,
-25,53,1364,0,-1,3,-112,637,-345,265.61,-1.36,2.18,-1.17,88.8,15.55,38.7,0,0,0,0,
-25,53,1364,0,-1,3,-108,635,-324,265.64,-1.36,2.18,-1.17,88.8,15.55,38.7,0,0,0,0,
-25,53,1364,0,-1,3,-108,635,-324,265.64,-1.36,2.18,-1.17,88.8,15.55,38.7,0,0,0,0,
-25,53,1364,0,-1,3,-108,635,-324,265.64,-1.36,2.18,-1.17,88.8,15.55,38.7,0,0,0,0,
-25,53,1364,0,-1,3,-108,635,-324,265.64,-1.36,2.18,-1.17,88.8,15.55,38.7,0,0,0,0,
-24,53,1368,1,0,0,-108,635,-324,265.64,-1.36,2.18,-1.17,88.8,15.55,38.7,0,0,0,0,
-24,53,1368,1,0,0,-108,635,-324,265.64,-1.36,2.18,-1.17,88.81,15.55,38.7,0,0,0,0,
-24,53,1368,1,0,0,-108,635,-324,265.64,-1.36,2.18,-1.17,88.81,15.55,38.7,0,0,0,0,
-25,53,1364,0,3,3,-108,635,-324,265.64,-1.36,2.18,-1.17,88.81,15.55,38.7,0,0,0,0,
-25,53,1364,0,3,3,-108,635,-324,265.64,-1.36,2.18,-1.17,88.81,15.55,38.7,0,0,0,0,
-29,51,1364,-1,0,0,-108,635,-324,265.64,-1.36,2.18,-1.17,88.81,15.55,38.7,0,0,0,0,
-29,51,1364,-1,0,0,-111,637,-336,265.6,-1.36,2.18,-1.17,88.81,15.55,38.7,0,0,0,0,
-29,51,1364,-1,0,0,-111,637,-336,265.6,-1.36,2.18,-1.17,88.81,15.55,38.7,0,0,0,0,
-29,51,1364,-1,0,0,-111,637,-336,265.6,-1.36,2.18,-1.17,88.81,15.55,38.7,0,0,0,0,
-29,51,1364,-1,0,0,-111,637,-336,265.6,-1.36,2.18,-1.17,88.81,15.56,38.7,0,0,0,0,
-29,51,1364,-1,0,0,-111,637,-336,265.6,-1.36,2.18,-1.17,88.81,15.56,38.7,0,0,0,0,
-24,57,1365,1,3,2,-111,637,-336,265.6,-1.36,2.18,-1.17,88.81,15.56,38.7,0,0,0,0,
-24,57,1365,1,3,2,-111,637,-336,265.6,-1.36,2.19,-1.17,88.81,15.56,38.7,0,0,0,0,
-24,57,1365,1,3,2,-111,637,-336,265.6,-1.36,2.19,-1.17,88.81,15.56,38.7,0,0,0,0,
-25,51,1365,-1,-1,-2,-111,637,-336,265.6,-1.36,2.19,-1.17,88.81,15.56,38.7,0,0,0,0,
-25,51,1365,-1,-1,-2,-113,636,-335,265.64,-1.36,2.19,-1.17,88.81,15.56,38.7,0,0,0,0,
-25,51,1365,-1,-1,-2,-113,636,-335,265.64,-1.36,2.19,-1.17,88.81,15.56,38.7,0,0,0,0,
-25,51,1365,-1,-1,-2,-113,636,-335,265.64,-1.36,2.19,-1.17,88.81,15.56,38.7,0,0,0,0,
-25,51,1365,-1,-1,-2,-113,636,-335,265.64,-1.36,2.19,-1.17,88.81,15.56,38.7,0,0,0,0,
-23,54,1369,2,1,0,-113,636,-335,265.64,-1.36,2.19,-1.17,88.81,15.56,38.7,0,0,0,0,
-23,54,1369,2,1,0,-113,636,-335,265.64,-1.36,2.19,-1.17,88.81,15.56,38.7,0,0,0,0,
-23,54,1369,2,1,0,-113,636,-335,265.64,-1.36,2.19,-1.17,88.81,15.56,38.7,0,0,0,0,
-22,50,1363,-5,0,1,-113,636,-335,265.64,-1.36,2.19,-1.17,88.81,15.56,38.7,0,0,0,0,
-22,50,1363,-5,0,1,-113,636,-335,265.64,-1.36,2.19,-1.17,88.81,15.56,38.7,0,0,0,0,
-25,55,1364,0,-2,0,-113,636,-335,265.64,-1.36,2.19,-1.17,88.81,15.56,38.7,0,0,0,0,
-25,55,1364,0,-2,0,-112,630,-336,265.62,-1.36,2.19,-1.17,88.81,15.56,38.7,0,0,0,0,
-25,55,1364,0,-2,0,-112,630,-336,265.62,-1.36,2.19,-1.17,88.82,15.56,38.7,0,0,0,0,
-25,55,1364,0,-2,0,-112,630,-336,265.62,-1.36,2.19,-1.17,88.82,15.56,38.7,0,0,0,0,
-25,55,1364,0,-2,0,-112,630,-336,265.62,-1.36,2.19,-1.17,88.82,15.56,38.7,0,0,0,0,
-25,55,1368,-2,-1,0,-112,630,-336,265.62,-1.36,2.19,-1.17,88.82,15.56,38.7,0,0,0,0,
-25,55,1368,-2,-1,0,-112,630,-336,265.62,-1.36,2.18,-1.17,88.82,15.56,38.7,0,0,0,0,
-25,55,1368,-2,-1,0,-112,630,-336,265.62,-1.36,2.18,-1.17,88.82,15.56,38.7,0,0,0,0,
-26,54,1362,-2,1,1,-112,630,-336,265.62,-1.36,2.18,-1.17,88.82,15.56,38.7,0,0,0,0,
-26,54,1362,-2,1,1,-113,635,-338,265.62,-1.36,2.18,-1.17,88.82,15.56,38.7,0,0,0,0,
-26,54,1362,-2,1,1,-113,635,-338,265.62,-1.36,2.19,-1.17,88.82,15.56,38.7,0,0,0,0,
-26,54,1362,-2,1,1,-113,635,-338,265.62,-1.36,2.19,-1.17,88.82,15.56,38.7,0,0,0,0,
-26,54,1362,-2,1,1,-113,635,-338,265.62,-1.36,2.19,-1.17,88.82,15.56,38.7,0,0,0,0,
-25,53,1363,0,2,-1,-113,635,-338,265.62,-1.36,2.19,-1.17,88.82,15.56,38.7,0,0,0,0,
-25,53,1363,0,2,-1,-113,635,-338,265.62,-1.36,2.19,-1.17,88.82,15.56,38.7,0,0,0,0,
-25,53,1363,0,2,-1,-113,635,-338,265.62,-1.36,2.19,-1.17,88.82,15.56,38.7,0,0,0,0,
-26,51,1365,0,1,3,-113,635,-338,265.62,-1.36,2.19,-1.17,88.82,15.56,38.7,0,0,0,0,
-26,51,1365,0,1,3,-113,635,-338,265.62,-1.36,2.19,-1.17,88.82,15.56,38.7,0,0,0,0,
-23,52,1366,2,-2,1,-113,635,-338,265.62,-1.36,2.19,-1.17,88.82,15.56,38.7,0,0,0,0,
-23,52,1366,2,-2,1,-115,637,-328,265.65,-1.36,2.19,-1.17,88.82,15.56,38.7,0,0,0,0,
-23,52,1366,2,-2,1,-115,637,-328,265.65,-1.36,2.19,-1.17,88.83,15.56,38.7,0,0,0,0,
-23,52,1366,2,-2,1,-115,637,-328,265.65,-1.35,2.19,-1.17,88.83,15.56,38.7,0,0,0,0,
-23,52,1366,2,-2,1,-115,637,-328,265.65,-1.35,2.19,-1.17,88.83,15.56,38.7,0,0,0,0,
-27,51,1367,0,-1,0,-115,637,-328,265.65,-1.35,2.19,-1.17,88.83,15.56,38.7,0,0,0,0,
-27,51,1367,0,-1,0,-115,637,-328,265.65,-1.35,2.19,-1.17,88.83,15.56,38.7,0,0,0,0,
-27,51,1367,0,-1,0,-115,637,-328,265.65,-1.35,2.19,-1.17,88.83,15.56,38.7,0,0,0,0,
-25,52,1364,2,1,0,-115,637,-328,265.65,-1.35,2.19,-1.17,88.83,15.56,38.7,0,0,0,0,
-25,52,1364,2,1,0,-108,639,-335,265.63,-1.35,2.19,-1.17,88.83,15.56,38.7,0,0,0,0,
-25,52,1364,2,1,0,-108,639,-335,265.63,-1.35,2.19,-1.17,88.83,15.56,38.7,0,0,0,0,
-25,52,1364,2,1,0,-108,639,-335,265.63,-1.35,2.19,-1.17,88.83,15.56,38.7,0,0,0,0,
-25,52,1364,2,1,0,-108,639,-335,265.63,-1.35,2.19,-1.17,88.83,15.56,38.7,0,0,0,0,
-26,56,1366,0,0,0,-108,639,-335,265.63,-1.35,2.19,-1.17,88.83,15.56,38.7,0,0,0,0,
-26,56,1366,0,0,0,-108,639,-335,265.63,-1.35,2.19,-1.17,88.84,15.56,38.7,0,0,0,0,
-26,56,1366,0,0,0,-108,639,-335,265.63,-1.35,2.19,-1.17,88.84,15.56,38.7,0,0,0,0,
-22,53,1364,0,3,0,-108,639,-335,265.63,-1.35,2.19,-1.17,88.84,15.56,38.7,0,0,0,0,
-22,53,1364,0,3,0,-108,639,-335,265.63,-1.35,2.19,-1.17,88.84,15.56,38.7,0,0,0,0,
-28,51,1363,0,2,-2,-108,639,-335,265.63,-1.35,2.19,-1.17,88.84,15.56,38.7,0,0,0,0,
-28,51,1363,0,2,-2,-109,630,-331,265.6,-1.35,2.19,-1.17,88.84,15.56,38.7,0,0,0,0,
-28,51,1363,0,2,-2,-109,630,-331,265.6,-1.35,2.19,-1.18,88.84,15.56,38.7,0,0,0,0,
-28,51,1363,0,2,-2,-109,630,-331,265.6,-1.35,2.19,-1.18,88.84,15.56,38.7,0,0,0,0,
-28,51,1363,0,2,-2,-109,630,-331,265.6,-1.35,2.19,-1.18,88.84,15.56,38.7,0,0,0,0,
-28,51,1363,0,2,-2,-109,630,-331,265.6,-1.35,2.19,-1.18,88.84,15.56,38.7,0,0,0,0,
-25,50,1364,-2,-1,1,-109,630,-331,265.6,-1.35,2.19,-1.18,88.84,15.56,38.7,0,0,0,0,
-25,50,1364,-2,-1,1,-109,630,-331,265.6,-1.35,2.19,-1.17,88.84,15.56,38.7,0,0,0,0,
-25,50,1364,-2,-1,1,-109,630,-331,265.6,-1.35,2.19,-1.17,88.84,15.56,38.7,0,0,0,0,
-26,54,1366,-6,0,0,-109,630,-331,265.6,-1.35,2.19,-1.17,88.84,15.56,38.7,0,0,0,0,
-26,54,1366,-6,0,0,-121,648,-332,265.61,-1.35,2.19,-1.17,88.84,15.56,38.7,0,0,0,0,
-26,54,1366,-6,0,0,-121,648,-332,265.61,-1.35,2.18,-1.17,88.84,15.56,38.7,0,0,0,0,
-26,54,1366,-6,0,0,-121,648,-332,265.61,-1.35,2.18,-1.17,88.84,15.56,38.7,0,0,0,0,
-26,54,1366,-6,0,0,-121,648,-332,265.61,-1.35,2.18,-1.17,88.84,15.56,38.7,0,0,0,0,
-24,53,1366,-1,0,-2,-121,648,-332,265.61,-1.35,2.18,-1.17,88.84,15.56,38.7,0,0,0,0,
-24,53,1366,-1,0,-2,-121,648,-332,265.61,-1.35,2.18,-1.17,88.84,15.56,38.7,0,0,0,0,
-24,53,1366,-1,0,-2,-121,648,-332,265.61,-1.35,2.18,-1.17,88.84,15.56,38.7,0,0,0,0,
-25,54,1366,0,0,2,-121,648,-332,265.61,-1.35,2.18,-1.17,88.84,15.56,38.7,0,0,0,0,
-25,54,1366,0,0,2,-121,648,-332,265.61,-1.35,2.18,-1.17,88.84,15.56,38.7,0,0,0,0,
-24,56,1365,0,0,0,-121,648,-332,265.61,-1.35,2.18,-1.17,88.84,15.56,38.7,0,0,0,0,
-24,56,1365,0,0,0,-118,639,-335,265.62,-1.35,2.18,-1.17,88.84,15.56,38.7,0,0,0,0,
-24,56,1365,0,0,0,-118,639,-335,265.62,-1.35,2.19,-1.17,88.84,15.56,38.7,0,0,0,0,
-24,56,1365,0,0,0,-118,639,-335,265.62,-1.36,2.19,-1.17,88.84,15.56,38.7,0,0,0,0,
-24,56,1365,0,0,0,-118,639,-335,265.62,-1.36,2.19,-1.17,88.84,15.56,38.7,0,0,0,0,
-26,57,1365,-1,0,0,-118,639,-335,265.62,-1.36,2.19,-1.17,88.84,15.56,38.7,0,0,0,0,
-26,57,1365,-1,0,0,-118,639,-335,265.62,-1.36,2.19,-1.17,88.85,15.56,38.7,0,0,0,0,
-26,57,1365,-1,0,0,-118,639,-335,265.62,-1.36,2.19,-1.17,88.85,15.56,38.7,0,0,0,0,
-25,55,1366,0,1,2,-118,639,-335,265.62,-1.36,2.19,-1.17,88.85,15.56,38.7,0,0,0,0,
-25,55,1366,0,1,2,-119,646,-345,265.62,-1.36,2.19,-1.17,88.85,15.56,38.7,0,0,0,0,
-25,55,1366,0,1,2,-119,646,-345,265.62,-1.36,2.19,-1.17,88.85,15.56,38.7,0,0,0,0,
-25,55,1366,0,1,2,-119,646,-345,265.62,-1.36,2.19,-1.17,88.85,15.56,38.7,0,0,0,0,
-25,55,1366,0,1,2,-119,646,-345,265.62,-1.36,2.19,-1.17,88.85,15.56,38.7,0,0,0,0,
-24,54,1363,-5,-1,0,-119,646,-345,265.62,-1.36,2.19,-1.17,88.85,15.56,38.7,0,0,0,0,
-24,54,1363,-5,-1,0,-119,646,-345,265.62,-1.36,2.18,-1.17,88.85,15.56,38.7,0,0,0,0,
-24,54,1363,-5,-1,0,-119,646,-345,265.62,-1.36,2.18,-1.17,88.85,15.56,38.7,0,0,0,0,
-26,56,1363,-4,0,1,-119,646,-345,265.62,-1.36,2.18,-1.17,88.85,15.56,38.7,0,0,0,0,
-26,56,1363,-4,0,1,-119,646,-345,265.62,-1.36,2.18,-1.17,88.85,15.56,38.7,0,0,0,0,
-26,57,1367,-3,-1,2,-119,646,-345,265.62,-1.36,2.18,-1.17,88.85,15.56,38.7,0,0,0,0,
-26,57,1367,-3,-1,2,-120,641,-340,265.62,-1.36,2.18,-1.17,88.85,15.56,38.7,0,0,0,0,
-26,57,1367,-3,-1,2,-120,641,-340,265.62,-1.36,2.18,-1.18,88.85,15.56,38.7,0,0,0,0,
-26,57,1367,-3,-1,2,-120,641,-340,265.62,-1.36,2.18,-1.18,88.85,15.56,38.7,0,0,0,0,
-26,57,1367,-3,-1,2,-120,641,-340,265.62,-1.36,2.18,-1.18,88.85,15.56,38.7,0,0,0,0,
-25,55,1365,-2,-2,-2,-120,641,-340,265.62,-1.36,2.18,-1.18,88.85,15.56,38.7,0,0,0,0,
-25,55,1365,-2,-2,-2,-120,641,-340,265.62,-1.36,2.18,-1.18,88.86,15.56,38.7,0,0,0,0,
-25,55,1365,-2,-2,-2,-120,641,-340,265.62,-1.36,2.18,-1.18,88.86,15.56,38.7,0,0,0,0,
-24,55,1363,2,1,0,-120,641,-340,265.62,-1.36,2.18,-1.18,88.86,15.56,38.7,0,0,0,0,
-24,55,1363,2,1,0,-106,631,-336,265.6,-1.36,2.18,-1.18,88.86,15.56,38.7,0,0,0,0,
-24,55,1363,2,1,0,-106,631,-336,265.6,-1.36,2.18,-1.18,88.86,15.56,38.7,0,0,0,0,
-24,55,1363,2,1,0,-106,631,-336,265.6,-1.36,2.18,-1.18,88.86,15.56,38.7,0,0,0,0,
-24,55,1363,2,1,0,-106,631,-336,265.6,-1.36,2.18,-1.18,88.86,15.56,38.7,0,0,0,0,
-24,55,1361,-2,-1,-1,-106,631,-336,265.6,-1.36,2.18,-1.18,88.86,15.56,38.7,0,0,0,0,
-24,55,1361,-2,-1,-1,-106,631,-336,265.6,-1.36,2.18,-1.17,88.86,15.56,38.7,0,0,0,0,
-24,55,1361,-2,-1,-1,-106,631,-336,265.6,-1.36,2.18,-1.17,88.86,15.56,38.7,0,0,0,0,
-26,54,1366,-2,0,-1,-106,631,-336,265.6,-1.36,2.18,-1.17,88.86,15.56,38.7,0,0,0,0,
-26,54,1366,-2,0,-1,-106,631,-336,265.6,-1.36,2.18,-1.17,88.86,15.56,38.7,0,0,0,0,
-22,53,1363,1,0,0,-106,631,-336,265.6,-1.36,2.18,-1.17,88.86,15.56,38.7,0,0,0,0,
-22,53,1363,1,0,0,-113,631,-343,265.58,-1.36,2.18,-1.17,88.86,15.56,38.7,0,0,0,0,
-22,53,1363,1,0,0,-113,631,-343,265.58,-1.36,2.18,-1.17,88.86,15.56,38.7,0,0,0,0,
-22,53,1363,1,0,0,-113,631,-343,265.58,-1.36,2.18,-1.17,88.86,15.56,38.7,0,0,0,0,
-22,53,1363,1,0,0,-113,631,-343,265.58,-1.36,2.18,-1.17,88.86,15.56,38.7,0,0,0,0,
-22,53,1363,1,0,0,-113,631,-343,265.58,-1.36,2.18,-1.17,88.86,15.56,38.7,0,0,0,0,
-27,56,1366,0,-2,1,-113,631,-343,265.58,-1.36,2.18,-1.17,88.86,15.56,38.7,0,0,0,0,
-27,56,1366,0,-2,1,-113,631,-343,265.58,-1.36,2.18,-1.17,88.87,15.56,38.7,0,0,0,0,
-27,56,1366,0,-2,1,-113,631,-343,265.58,-1.36,2.18,-1.17,88.87,15.56,38.7,0,0,0,0,
-26,50,1363,0,-2,1,-113,631,-343,265.58,-1.36,2.18,-1.17,88.87,15.56,38.7,0,0,0,0,
-26,50,1363,0,-2,1,-123,643,-342,265.58,-1.36,2.18,-1.17,88.87,15.56,38.7,0,0,0,0,
-26,50,1363,0,-2,1,-123,643,-342,265.58,-1.36,2.19,-1.17,88.87,15.56,38.7,0,0,0,0,
-26,50,1363,0,-2,1,-123,643,-342,265.58,-1.36,2.19,-1.17,88.87,15.56,38.7,0,0,0,0,
-26,50,1363,0,-2,1,-123,643,-342,265.58,-1.36,2.19,-1.17,88.87,15.56,38.7,0,0,0,0,
-24,54,1364,0,0,0,-123,643,-342,265.58,-1.36,2.19,-1.17,88.87,15.56,38.7,0,0,0,0,
-24,54,1364,0,0,0,-123,643,-342,265.58,-1.36,2.19,-1.17,88.87,15.56,38.7,0,0,0,0,
-24,54,1364,0,0,0,-123,643,-342,265.58,-1.36,2.19,-1.17,88.87,15.56,38.7,0,0,0,0,
-23,53,1366,0,0,0,-123,643,-342,265.58,-1.36,2.19,-1.17,88.87,15.56,38.7,0,0,0,0,
-23,53,1366,0,0,0,-123,643,-342,265.58,-1.36,2.19,-1.17,88.87,15.56,38.7,0,0,0,0,
-26,55,1362,2,0,-1,-123,643,-342,265.58,-1.36,2.19,-1.17,88.87,15.56,38.7,0,0,0,0,
-26,55,1362,2,0,-1,-123,642,-335,265.61,-1.36,2.19,-1.17,88.87,15.56,38.7,0,0,0,0,
-26,55,1362,2,0,-1,-123,642,-335,265.61,-1.36,2.19,-1.17,88.87,15.56,38.7,0,0,0,0,
-26,55,1362,2,0,-1,-123,642,-335,265.61,-1.36,2.19,-1.17,88.87,15.56,38.7,0,0,0,0,
-26,55,1362,2,0,-1,-123,642,-335,265.61,-1.36,2.19,-1.17,88.87,15.56,38.7,0,0,0,0,
-25,50,1367,0,0,-1,-123,642,-335,265.61,-1.36,2.19,-1.17,88.87,15.56,38.7,0,0,0,0,
-25,50,1367,0,0,-1,-123,642,-335,265.61,-1.36,2.19,-1.17,88.87,15.56,38.7,0,0,0,0,
-25,50,1367,0,0,-1,-123,642,-335,265.61,-1.36,2.19,-1.17,88.87,15.56,38.7,0,0,0,0,
-25,51,1365,-3,-1,0,-123,642,-335,265.61,-1.36,2.19,-1.17,88.87,15.56,38.7,0,0,0,0,
-25,51,1365,-3,-1,0,-125,644,-334,265.61,-1.36,2.19,-1.17,88.87,15.56,38.7,0,0,0,0,
-25,51,1365,-3,-1,0,-125,644,-334,265.61,-1.36,2.19,-1.17,88.88,15.56,38.7,0,0,0,0,
-25,51,1365,-3,-1,0,-125,644,-334,265.61,-1.37,2.19,-1.17,88.88,15.56,38.7,0,0,0,0,
-25,51,1365,-3,-1,0,-125,644,-334,265.61,-1.37,2.19,-1.17,88.88,15.56,38.7,0,0,0,0,
-24,54,1366,-2,-2,0,-125,644,-334,265.61,-1.37,2.19,-1.17,88.88,15.56,38.7,0,0,0,0,
-24,54,1366,-2,-2,0,-125,644,-334,265.61,-1.37,2.19,-1.17,88.88,15.56,38.7,0,0,0,0,
-24,54,1366,-2,-2,0,-125,644,-334,265.61,-1.37,2.19,-1.17,88.88,15.56,38.7,0,0,0,0,
-23,53,1363,-2,-1,2,-125,644,-334,265.61,-1.37,2.19,-1.17,88.88,15.56,38.7,0,0,0,0,
-23,53,1363,-2,-1,2,-125,644,-334,265.61,-1.37,2.19,-1.17,88.88,15.56,38.7,0,0,0,0,
-23,51,1367,0,-2,-1,-125,644,-334,265.61,-1.37,2.19,-1.17,88.88,15.56,38.7,0,0,0,0,
-23,51,1367,0,-2,-1,-125,644,-337,265.6,-1.37,2.19,-1.17,88.88,15.56,38.7,0,0,0,0,
-23,51,1367,0,-2,-1,-125,644,-337,265.6,-1.37,2.19,-1.17,88.88,15.56,38.7,0,0,0,0,
-23,51,1367,0,-2,-1,-125,644,-337,265.6,-1.37,2.19,-1.17,88.88,15.56,38.7,0,0,0,0,
-23,51,1367,0,-2,-1,-125,644,-337,265.6,-1.37,2.19,-1.17,88.88,15.56,38.7,0,0,0,0,
-23,58,1365,-4,2,1,-125,644,-337,265.6,-1.37,2.19,-1.17,88.88,15.56,38.7,0,0,0,0,
-23,58,1365,-4,2,1,-125,644,-337,265.6,-1.37,2.19,-1.17,88.89,15.56,38.7,0,0,0,0,
-23,58,1365,-4,2,1,-125,644,-337,265.6,-1.37,2.19,-1.17,88.89,15.56,38.7,0,0,0,0,
-22,55,1364,-1,-3,0,-125,644,-337,265.6,-1.37,2.19,-1.17,88.89,15.56,38.7,0,0,0,0,
-22,55,1364,-1,-3,0,-111,634,-337,265.6,-1.37,2.19,-1.17,88.89,15.56,38.7,0,0,0,0,
-22,55,1364,-1,-3,0,-111,634,-337,265.6,-1.37,2.19,-1.17,88.89,15.56,38.7,0,0,0,0,
-22,55,1364,-1,-3,0,-111,634,-337,265.6,-1.37,2.19,-1.17,88.89,15.56,38.7,0,0,0,0,
-22,55,1364,-1,-3,0,-111,634,-337,265.6,-1.37,2.19,-1.17,88.89,15.56,38.7,0,0,0,0,
-23,55,1365,0,0,0,-111,634,-337,265.6,-1.37,2.19,-1.17,88.89,15.56,38.7,0,0,0,0,
-23,55,1365,0,0,0,-111,634,-337,265.6,-1.37,2.19,-1.17,88.89,15.56,38.7,0,0,0,0,
-23,55,1365,0,0,0,-111,634,-337,265.6,-1.37,2.19,-1.17,88.89,15.56,38.7,0,0,0,0,
-22,49,1362,0,-1,0,-111,634,-337,265.6,-1.37,2.19,-1.17,88.89,15.56,38.7,0,0,0,0,
-22,49,1362,0,-1,0,-111,634,-337,265.6,-1.37,2.19,-1.17,88.89,15.56,38.7,0,0,0,0,
-23,54,1367,2,1,1,-111,634,-337,265.6,-1.37,2.19,-1.17,88.89,15.56,38.7,0,0,0,0,
-23,54,1367,2,1,1,-113,631,-328,265.6,-1.37,2.19,-1.17,88.89,15.56,38.7,0,0,0,0,
-23,54,1367,2,1,1,-113,631,-328,265.6,-1.37,2.19,-1.17,88.89,15.56,38.7,0,0,0,0,
-23,54,1367,2,1,1,-113,631,-328,265.6,-1.37,2.19,-1.17,88.89,15.56,38.7,0,0,0,0,
-23,54,1367,2,1,1,-113,631,-328,265.6,-1.37,2.19,-1.17,88.89,15.56,38.7,0,0,0,0,
-23,54,1367,2,1,1,-113,631,-328,265.6,-1.37,2.19,-1.17,88.89,15.56,38.7,0,0,0,0,
-26,51,1361,1,0,-2,-113,631,-328,265.6,-1.37,2.19,-1.17,88.89,15.56,38.7,0,0,0,0,
-26,51,1361,1,0,-2,-113,631,-328,265.6,-1.37,2.19,-1.17,88.89,15.56,38.7,0,0,0,0,
-26,51,1361,1,0,-2,-113,631,-328,265.6,-1.37,2.19,-1.17,88.89,15.56,38.7,0,0,0,0,
-26,52,1368,-1,0,-1,-113,631,-328,265.6,-1.37,2.19,-1.17,88.89,15.56,38.7,0,0,0,0,
-26,52,1368,-1,0,-1,-134,661,-341,265.61,-1.37,2.19,-1.17,88.89,15.56,38.7,0,0,0,0,
-26,52,1368,-1,0,-1,-134,661,-341,265.61,-1.37,2.18,-1.17,88.9,15.56,38.7,0,0,0,0,
-26,52,1368,-1,0,-1,-134,661,-341,265.61,-1.37,2.18,-1.17,88.9,15.56,38.7,0,0,0,0,
-26,52,1368,-1,0,-1,-134,661,-341,265.61,-1.37,2.18,-1.17,88.9,15.56,38.7,0,0,0,0,
-24,54,1365,0,0,0,-134,661,-341,265.61,-1.37,2.18,-1.17,88.9,15.56,38.7,0,0,0,0,
-24,54,1365,0,0,0,-134,661,-341,265.61,-1.37,2.18,-1.17,88.9,15.56,38.7,0,0,0,0,
-24,54,1365,0,0,0,-134,661,-341,265.61,-1.37,2.18,-1.17,88.9,15.56,38.7,0,0,0,0,
-27,55,1367,-2,-1,-3,-134,661,-341,265.61,-1.37,2.18,-1.17,88.9,15.56,38.7,0,0,0,0,
-27,55,1367,-2,-1,-3,-134,661,-341,265.61,-1.37,2.18,-1.17,88.9,15.56,38.7,0,0,0,0,
-24,53,1364,-2,0,0,-134,661,-341,265.61,-1.37,2.18,-1.17,88.9,15.56,38.7,0,0,0,0,
-24,53,1364,-2,0,0,-143,660,-336,265.62,-1.37,2.18,-1.17,88.9,15.56,38.7,0,0,0,0,
-24,53,1364,-2,0,0,-143,660,-336,265.62,-1.37,2.18,-1.17,88.9,15.56,38.7,0,0,0,0,
-24,53,1364,-2,0,0,-143,660,-336,265.62,-1.38,2.18,-1.17,88.9,15.56,38.7,0,0,0,0,
-24,53,1364,-2,0,0,-143,660,-336,265.62,-1.38,2.18,-1.17,88.9,15.56,38.7,0,0,0,0,
-23,52,1365,0,0,3,-143,660,-336,265.62,-1.38,2.18,-1.17,88.9,15.56,38.7,0,0,0,0,
-23,52,1365,0,0,3,-143,660,-336,265.62,-1.38,2.18,-1.17,88.9,15.56,38.7,0,0,0,0,
-23,52,1365,0,0,3,-143,660,-336,265.62,-1.38,2.18,-1.17,88.9,15.56,38.7,0,0,0,0,
-25,53,1366,-2,1,0,-143,660,-336,265.62,-1.38,2.18,-1.17,88.9,15.56,38.7,0,0,0,0,
-25,53,1366,-2,1,0,-134,654,-335,265.64,-1.38,2.18,-1.17,88.9,15.56,38.7,0,0,0,0,
-25,53,1366,-2,1,0,-134,654,-335,265.64,-1.38,2.18,-1.18,88.91,15.56,38.7,0,0,0,0,
-25,53,1366,-2,1,0,-134,654,-335,265.64,-1.38,2.18,-1.18,88.91,15.56,38.7,0,0,0,0,
-25,53,1366,-2,1,0,-134,654,-335,265.64,-1.38,2.18,-1.18,88.91,15.56,38.7,0,0,0,0,
-23,55,1367,-2,0,0,-134,654,-335,265.64,-1.38,2.18,-1.18,88.91,15.56,38.7,0,0,0,0,
-23,55,1367,-2,0,0,-134,654,-335,265.64,-1.38,2.18,-1.17,88.91,15.56,38.7,0,0,0,0,
-23,55,1367,-2,0,0,-134,654,-335,265.64,-1.38,2.18,-1.17,88.91,15.56,38.7,0,0,0,0,
-25,52,1365,0,1,1,-134,654,-335,265.64,-1.38,2.18,-1.17,88.91,15.56,38.7,0,0,0,0,
-25,52,1365,0,1,1,-134,654,-335,265.64,-1.38,2.18,-1.17,88.91,15.56,38.7,0,0,0,0,
-23,51,1365,-2,0,-1,-134,654,-335,265.64,-1.38,2.18,-1.17,88.91,15.56,38.7,0,0,0,0,
-23,51,1365,-2,0,-1,-131,659,-334,265.61,-1.38,2.18,-1.17,88.91,15.56,38.7,0,0,0,0,
-23,51,1365,-2,0,-1,-131,659,-334,265.61,-1.38,2.18,-1.18,88.91,15.56,38.7,0,0,0,0,
-23,51,1365,-2,0,-1,-131,659,-334,265.61,-1.38,2.18,-1.18,88.91,15.56,38.7,0,0,0,0,
-23,51,1365,-2,0,-1,-131,659,-334,265.61,-1.38,2.18,-1.18,88.91,15.56,38.7,0,0,0,0,
-23,53,1365,-2,0,0,-131,659,-334,265.61,-1.38,2.18,-1.18,88.91,15.56,38.7,0,0,0,0,
-23,53,1365,-2,0,0,-131,659,-334,265.61,-1.38,2.17,-1.18,88.91,15.56,38.7,0,0,0,0,
-23,53,1365,-2,0,0,-131,659,-334,265.61,-1.38,2.17,-1.18,88.91,15.56,38.7,0,0,0,0,
-28,51,1364,2,1,-1,-131,659,-334,265.61,-1.38,2.17,-1.18,88.91,15.56,38.7,0,0,0,0,
-28,51,1364,2,1,-1,-114,632,-343,265.59,-1.38,2.17,-1.18,88.91,15.56,38.7,0,0,0,0,
-28,51,1364,2,1,-1,-114,632,-343,265.59,-1.38,2.17,-1.18,88.91,15.56,38.7,0,0,0,0,
-28,51,1364,2,1,-1,-114,632,-343,265.59,-1.38,2.17,-1.18,88.91,15.56,38.7,0,0,0,0,
-28,51,1364,2,1,-1,-114,632,-343,265.59,-1.38,2.17,-1.18,88.91,15.56,38.7,0,0,0,0,
