1,2,3,4,5,6,7,8,9,10,11,12,13,14,15,16,17,18,19,20,
FC_ACC_X,FC_ACC_Y,FC_ACC_Z,FC_GYR_X,FC_GYR_Y,FC_GYR_Z,FC_MAG_X,FC_MAG_Y,FC_MAG_Z,FC_ALT_BAR,FC_ALT_FU,FC_ATT_ROL,FC_ATT_PIT,FC_ATT_YAW,FC_Votage,FC_SenserTMP,FC_CTRLOUT_PWM1,FC_CTRLOUT_PWM2,FC_CTRLOUT_PWM3,FC_CTRLOUT_PWM4,
0,0,0,0,0,0,0,0,0,0,0,0,0,0,0,0,0,0,0,0,
-31,50,1365,-7,0,0,0,0,0,0,0,0,0,0,0,0,0,0,0,0,
-31,50,1365,-7,0,0,-105,629,-347,265.44,0,0,0,0,0,40.3,0,0,0,0,
-31,50,1365,-7,0,0,-105,629,-347,265.44,0,1.89,-1.08,90.22,0,40.3,0,0,0,0,
-31,50,1365,-7,0,0,-105,629,-347,265.44,-1.37,1.89,-1.08,90.22,0,40.3,0,0,0,0,
-31,50,1365,-7,0,0,-105,629,-347,265.44,-1.37,1.89,-1.08,90.22,15.47,40.3,0,0,0,0,
-31,50,1365,-7,0,0,-105,629,-347,265.44,-1.37,1.89,-1.08,90.22,15.47,40.3,0,0,0,0,
-30,49,1362,0,-1,-1,-105,629,-347,265.44,-1.37,1.89,-1.08,90.22,15.47,40.3,0,0,0,0,
-30,49,1362,0,-1,-1,-105,629,-347,265.44,-1.37,1.89,-1.08,90.22,15.47,40.3,0,0,0,0,
-30,49,1362,0,-1,-1,-105,629,-347,265.44,-1.37,1.89,-1.08,90.22,15.47,40.3,0,0,0,0,
-28,52,1365,-3,0,-2,-105,629,-347,265.44,-1.37,1.89,-1.08,90.22,15.47,40.3,0,0,0,0,
-28,52,1365,-3,0,-2,-106,627,-323,265.46,-1.37,1.89,-1.08,90.22,15.47,40.3,0,0,0,0,
-28,52,1365,-3,0,-2,-106,627,-323,265.46,-1.37,1.9,-1.08,90.23,15.47,40.3,0,0,0,0,
-28,52,1365,-3,0,-2,-106,627,-323,265.46,-1.37,1.9,-1.08,90.23,15.47,40.3,0,0,0,0,
-28,52,1365,-3,0,-2,-106,627,-323,265.46,-1.37,1.9,-1.08,90.23,15.47,40.3,0,0,0,0,
-28,50,1363,-1,0,-1,-106,627,-323,265.46,-1.37,1.9,-1.08,90.23,15.47,40.3,0,0,0,0,
-28,50,1363,-1,0,-1,-106,627,-323,265.46,-1.37,1.89,-1.08,90.13,15.47,40.3,0,0,0,0,
-28,50,1363,-1,0,-1,-106,627,-323,265.46,-1.37,1.89,-1.08,90.13,15.47,40.3,0,0,0,0,
-30,49,1365,-2,0,-1,-106,627,-323,265.46,-1.37,1.89,-1.08,90.13,15.47,40.3,0,0,0,0,
-30,49,1365,-2,0,-1,-106,627,-323,265.46,-1.37,1.89,-1.08,90.13,15.47,40.3,0,0,0,0,
-26,49,1369,2,1,2,-106,627,-323,265.46,-1.37,1.89,-1.08,90.13,15.47,40.3,0,0,0,0,
-26,49,1369,2,1,2,-106,637,-340,265.44,-1.37,1.89,-1.08,90.13,15.47,40.3,0,0,0,0,
-26,49,1369,2,1,2,-106,637,-340,265.44,-1.37,1.9,-1.08,90.17,15.47,40.3,0,0,0,0,
-26,49,1369,2,1,2,-106,637,-340,265.44,-1.37,1.9,-1.08,90.17,15.47,40.3,0,0,0,0,
-26,49,1369,2,1,2,-106,637,-340,265.44,-1.37,1.9,-1.08,90.17,15.47,40.3,0,0,0,0,
-27,50,1364,-4,0,0,-106,637,-340,265.44,-1.37,1.9,-1.08,90.17,15.47,40.3,0,0,0,0,
-27,50,1364,-4,0,0,-106,637,-340,265.44,-1.37,1.9,-1.08,90.12,15.47,40.3,0,0,0,0,
-27,50,1364,-4,0,0,-106,637,-340,265.44,-1.37,1.9,-1.08,90.12,15.47,40.3,0,0,0,0,
-27,49,1366,-1,0,2,-106,637,-340,265.44,-1.37,1.9,-1.08,90.12,15.47,40.3,0,0,0,0,
-27,49,1366,-1,0,2,-106,633,-338,265.46,-1.37,1.9,-1.08,90.12,15.47,40.3,0,0,0,0,
-27,49,1366,-1,0,2,-106,633,-338,265.46,-1.37,1.9,-1.08,90.17,15.47,40.3,0,0,0,0,
-27,49,1366,-1,0,2,-106,633,-338,265.46,-1.37,1.9,-1.08,90.17,15.47,40.3,0,0,0,0,
-27,49,1366,-1,0,2,-106,633,-338,265.46,-1.37,1.9,-1.08,90.17,15.47,40.3,0,0,0,0,
-24,50,1364,-4,1,2,-106,633,-338,265.46,-1.37,1.9,-1.08,90.17,15.47,40.3,0,0,0,0,
-24,50,1364,-4,1,2,-106,633,-338,265.46,-1.37,1.9,-1.08,90.23,15.47,40.3,0,0,0,0,
-24,50,1364,-4,1,2,-106,633,-338,265.46,-1.37,1.9,-1.08,90.23,15.47,40.3,0,0,0,0,
-28,52,1365,2,1,1,-106,633,-338,265.46,-1.37,1.9,-1.08,90.23,15.47,40.3,0,0,0,0,
-28,52,1365,2,1,1,-106,633,-338,265.46,-1.37,1.9,-1.08,90.23,15.47,40.3,0,0,0,0,
-29,47,1364,0,2,0,-106,633,-338,265.46,-1.37,1.9,-1.08,90.23,15.47,40.3,0,0,0,0,
-29,47,1364,0,2,0,-104,630,-333,265.45,-1.37,1.9,-1.08,90.23,15.47,40.3,0,0,0,0,
-29,47,1364,0,2,0,-104,630,-333,265.45,-1.37,1.9,-1.08,90.22,15.47,40.3,0,0,0,0,
-29,47,1364,0,2,0,-104,630,-333,265.45,-1.37,1.9,-1.08,90.22,15.47,40.3,0,0,0,0,
-29,47,1364,0,2,0,-104,630,-333,265.45,-1.37,1.9,-1.08,90.22,15.47,40.3,0,0,0,0,
-27,54,1367,1,0,0,-104,630,-333,265.45,-1.37,1.9,-1.08,90.22,15.47,40.3,0,0,0,0,
-27,54,1367,1,0,0,-104,630,-333,265.45,-1.37,1.9,-1.08,90.22,15.47,40.3,0,0,0,0,
-27,54,1367,1,0,0,-104,630,-333,265.45,-1.37,1.9,-1.08,90.22,15.47,40.3,0,0,0,0,
-29,53,1366,1,-2,-1,-104,630,-333,265.45,-1.37,1.9,-1.08,90.22,15.47,40.3,0,0,0,0,
-29,53,1366,1,-2,-1,-103,627,-324,265.46,-1.37,1.9,-1.08,90.22,15.47,40.3,0,0,0,0,
-29,53,1366,1,-2,-1,-103,627,-324,265.46,-1.37,1.9,-1.08,90.22,15.47,40.3,0,0,0,0,
-29,53,1366,1,-2,-1,-103,627,-324,265.46,-1.37,1.9,-1.08,90.22,15.47,40.3,0,0,0,0,
-29,53,1366,1,-2,-1,-103,627,-324,265.46,-1.37,1.9,-1.08,90.22,15.47,40.3,0,0,0,0,
-24,48,1363,0,3,1,-103,627,-324,265.46,-1.37,1.9,-1.08,90.22,15.47,40.3,0,0,0,0,
-24,48,1363,0,3,1,-103,627,-324,265.46,-1.37,1.9,-1.08,90.22,15.47,40.3,0,0,0,0,
-24,48,1363,0,3,1,-103,627,-324,265.46,-1.37,1.9,-1.08,90.22,15.47,40.3,0,0,0,0,
-30,49,1366,0,-1,0,-103,627,-324,265.46,-1.37,1.9,-1.08,90.22,15.47,40.3,0,0,0,0,
-30,49,1366,0,-1,0,-103,627,-324,265.46,-1.37,1.9,-1.08,90.22,15.47,40.3,0,0,0,0,
-29,49,1367,4,1,0,-103,627,-324,265.46,-1.37,1.9,-1.08,90.22,15.47,40.3,0,0,0,0,
-29,49,1367,4,1,0,-103,630,-334,265.41,-1.37,1.9,-1.08,90.22,15.47,40.3,0,0,0,0,
-29,49,1367,4,1,0,-103,630,-334,265.41,-1.37,1.91,-1.08,90.14,15.47,40.3,0,0,0,0,
-29,49,1367,4,1,0,-103,630,-334,265.41,-1.37,1.91,-1.08,90.14,15.47,40.3,0,0,0,0,
-29,49,1367,4,1,0,-103,630,-334,265.41,-1.37,1.91,-1.08,90.14,15.47,40.3,0,0,0,0,
-29,49,1367,4,1,0,-103,630,-334,265.41,-1.37,1.91,-1.08,90.14,15.47,40.3,0,0,0,0,
-28,51,1364,1,2,0,-103,630,-334,265.41,-1.37,1.91,-1.08,90.14,15.47,40.3,0,0,0,0,
-28,51,1364,1,2,0,-103,630,-334,265.41,-1.37,1.91,-1.08,90.12,15.47,40.3,0,0,0,0,
-28,51,1364,1,2,0,-103,630,-334,265.41,-1.37,1.91,-1.08,90.12,15.47,40.3,0,0,0,0,
-28,51,1363,0,-1,-2,-103,630,-334,265.41,-1.37,1.91,-1.08,90.12,15.47,40.3,0,0,0,0,
-28,51,1363,0,-1,-2,-110,641,-326,265.45,-1.37,1.91,-1.08,90.12,15.47,40.3,0,0,0,0,
-28,51,1363,0,-1,-2,-110,641,-326,265.45,-1.37,1.91,-1.08,90.14,15.47,40.3,0,0,0,0,
-28,51,1363,0,-1,-2,-110,641,-326,265.45,-1.37,1.91,-1.08,90.14,15.47,40.3,0,0,0,0,
-28,51,1363,0,-1,-2,-110,641,-326,265.45,-1.37,1.91,-1.08,90.14,15.47,40.3,0,0,0,0,
-29,48,1364,0,0,0,-110,641,-326,265.45,-1.37,1.91,-1.08,90.14,15.47,40.3,0,0,0,0,
-29,48,1364,0,0,0,-110,641,-326,265.45,-1.37,1.91,-1.08,90.12,15.47,40.3,0,0,0,0,
-29,48,1364,0,0,0,-110,641,-326,265.45,-1.37,1.91,-1.08,90.12,15.47,40.3,0,0,0,0,
-29,51,1364,-5,1,1,-110,641,-326,265.45,-1.37,1.91,-1.08,90.12,15.47,40.3,0,0,0,0,
-29,51,1364,-5,1,1,-110,641,-326,265.45,-1.37,1.91,-1.08,90.12,15.47,40.3,0,0,0,0,
-26,50,1366,0,-2,0,-110,641,-326,265.45,-1.37,1.91,-1.08,90.12,15.47,40.3,0,0,0,0,
-26,50,1366,0,-2,0,-113,642,-322,265.43,-1.37,1.91,-1.08,90.12,15.47,40.3,0,0,0,0,
-26,50,1366,0,-2,0,-113,642,-322,265.43,-1.37,1.91,-1.08,90.12,15.47,40.3,0,0,0,0,
-26,50,1366,0,-2,0,-113,642,-322,265.43,-1.37,1.91,-1.08,90.12,15.47,40.3,0,0,0,0,
-26,50,1366,0,-2,0,-113,642,-322,265.43,-1.37,1.91,-1.08,90.12,15.47,40.3,0,0,0,0,
-30,49,1365,-1,-1,-1,-113,642,-322,265.43,-1.37,1.91,-1.08,90.12,15.47,40.3,0,0,0,0,
-30,49,1365,-1,-1,-1,-113,642,-322,265.43,-1.37,1.91,-1.08,90.12,15.47,40.3,0,0,0,0,
-30,49,1365,-1,-1,-1,-113,642,-322,265.43,-1.37,1.91,-1.08,90.12,15.47,40.3,0,0,0,0,
-28,53,1365,-1,0,0,-113,642,-322,265.43,-1.37,1.91,-1.08,90.12,15.47,40.3,0,0,0,0,
-28,53,1365,-1,0,0,-110,640,-331,265.47,-1.37,1.91,-1.08,90.12,15.47,40.3,0,0,0,0,
-28,53,1365,-1,0,0,-110,640,-331,265.47,-1.37,1.91,-1.08,90.12,15.47,40.3,0,0,0,0,
-28,53,1365,-1,0,0,-110,640,-331,265.47,-1.37,1.91,-1.08,90.12,15.47,40.3,0,0,0,0,
-28,53,1365,-1,0,0,-110,640,-331,265.47,-1.37,1.91,-1.08,90.12,15.47,40.3,0,0,0,0,
-27,49,1366,1,0,-2,-110,640,-331,265.47,-1.37,1.91,-1.08,90.12,15.47,40.3,0,0,0,0,
-27,49,1366,1,0,-2,-110,640,-331,265.47,-1.37,1.91,-1.08,90.12,15.47,40.3,0,0,0,0,
-27,49,1366,1,0,-2,-110,640,-331,265.47,-1.37,1.91,-1.08,90.12,15.47,40.3,0,0,0,0,
-32,49,1366,-3,0,-4,-110,640,-331,265.47,-1.37,1.91,-1.08,90.12,15.47,40.3,0,0,0,0,
-32,49,1366,-3,0,-4,-110,640,-331,265.47,-1.37,1.91,-1.08,90.12,15.47,40.3,0,0,0,0,
-28,52,1366,0,2,0,-110,640,-331,265.47,-1.37,1.91,-1.08,90.12,15.47,40.3,0,0,0,0,
-28,52,1366,0,2,0,-112,639,-323,265.45,-1.37,1.91,-1.08,90.12,15.47,40.3,0,0,0,0,
-28,52,1366,0,2,0,-112,639,-323,265.45,-1.37,1.91,-1.08,90.12,15.47,40.3,0,0,0,0,
-28,52,1366,0,2,0,-112,639,-323,265.45,-1.37,1.91,-1.08,90.12,15.47,40.3,0,0,0,0,
-28,52,1366,0,2,0,-112,639,-323,265.45,-1.37,1.91,-1.08,90.12,15.47,40.3,0,0,0,0,
-28,53,1364,0,0,-2,-112,639,-323,265.45,-1.37,1.91,-1.08,90.12,15.47,40.3,0,0,0,0,
-28,53,1364,0,0,-2,-112,639,-323,265.45,-1.37,1.91,-1.08,90.12,15.47,40.3,0,0,0,0,
-28,53,1364,0,0,-2,-112,639,-323,265.45,-1.37,1.91,-1.08,90.12,15.47,40.3,0,0,0,0,
-29,53,1367,3,1,1,-112,639,-323,265.45,-1.37,1.91,-1.08,90.12,15.47,40.3,0,0,0,0,
-29,53,1367,3,1,1,-106,629,-339,265.45,-1.37,1.91,-1.08,90.12,15.47,40.3,0,0,0,0,
-29,53,1367,3,1,1,-106,629,-339,265.45,-1.37,1.91,-1.08,90.12,15.47,40.3,0,0,0,0,
-29,53,1367,3,1,1,-106,629,-339,265.45,-1.36,1.91,-1.08,90.12,15.47,40.3,0,0,0,0,
-29,53,1367,3,1,1,-106,629,-339,265.45,-1.36,1.91,-1.08,90.12,15.47,40.3,0,0,0,0,
-28,49,1367,-4,2,0,-106,629,-339,265.45,-1.36,1.91,-1.08,90.12,15.47,40.3,0,0,0,0,
-28,49,1367,-4,2,0,-106,629,-339,265.45,-1.36,1.91,-1.08,90.12,15.47,40.3,0,0,0,0,
-28,49,1367,-4,2,0,-106,629,-339,265.45,-1.36,1.91,-1.08,90.12,15.47,40.3,0,0,0,0,
-27,54,1364,-4,-2,0,-106,629,-339,265.45,-1.36,1.91,-1.08,90.12,15.47,40.3,0,0,0,0,
-27,54,1364,-4,-2,0,-106,629,-339,265.45,-1.36,1.91,-1.08,90.12,15.47,40.3,0,0,0,0,
-28,46,1362,-6,1,0,-106,629,-339,265.45,-1.36,1.91,-1.08,90.12,15.47,40.3,0,0,0,0,
-28,46,1362,-6,1,0,-106,636,-325,265.45,-1.36,1.91,-1.08,90.12,15.47,40.3,0,0,0,0,
-28,46,1362,-6,1,0,-106,636,-325,265.45,-1.36,1.91,-1.08,90.12,15.47,40.3,0,0,0,0,
-28,46,1362,-6,1,0,-106,636,-325,265.45,-1.36,1.91,-1.08,90.12,15.47,40.3,0,0,0,0,
-28,46,1362,-6,1,0,-106,636,-325,265.45,-1.36,1.91,-1.08,90.12,15.47,40.3,0,0,0,0,
-28,46,1362,-6,1,0,-106,636,-325,265.45,-1.36,1.91,-1.08,90.12,15.47,40.3,0,0,0,0,
-29,50,1365,-4,1,-2,-106,636,-325,265.45,-1.36,1.91,-1.08,90.12,15.47,40.3,0,0,0,0,
-29,50,1365,-4,1,-2,-106,636,-325,265.45,-1.36,1.91,-1.08,90.12,15.47,40.3,0,0,0,0,
-29,50,1365,-4,1,-2,-106,636,-325,265.45,-1.36,1.91,-1.08,90.12,15.47,40.3,0,0,0,0,
-31,49,1365,0,-1,-2,-106,636,-325,265.45,-1.36,1.91,-1.08,90.12,15.47,40.3,0,0,0,0,
-31,49,1365,0,-1,-2,-117,641,-338,265.44,-1.36,1.91,-1.08,90.12,15.47,40.3,0,0,0,0,
-31,49,1365,0,-1,-2,-117,641,-338,265.44,-1.36,1.91,-1.08,90.12,15.47,40.3,0,0,0,0,
-31,49,1365,0,-1,-2,-117,641,-338,265.44,-1.36,1.91,-1.08,90.12,15.47,40.3,0,0,0,0,
-31,49,1365,0,-1,-2,-117,641,-338,265.44,-1.36,1.91,-1.08,90.12,15.47,40.3,0,0,0,0,
-29,52,1364,-1,1,-2,-117,641,-338,265.44,-1.36,1.91,-1.08,90.12,15.47,40.3,0,0,0,0,
-29,52,1364,-1,1,-2,-117,641,-338,265.44,-1.36,1.91,-1.08,90.12,15.47,40.3,0,0,0,0,
-29,52,1364,-1,1,-2,-117,641,-338,265.44,-1.36,1.91,-1.08,90.12,15.47,40.3,0,0,0,0,
-25,52,1362,-3,0,0,-117,641,-338,265.44,-1.36,1.91,-1.08,90.12,15.47,40.3,0,0,0,0,
-25,52,1362,-3,0,0,-117,641,-338,265.44,-1.36,1.91,-1.08,90.12,15.47,40.3,0,0,0,0,
-29,50,1366,1,0,0,-117,641,-338,265.44,-1.36,1.91,-1.08,90.12,15.47,40.3,0,0,0,0,
-29,50,1366,1,0,0,-117,644,-342,265.44,-1.36,1.91,-1.08,90.12,15.47,40.3,0,0,0,0,
-29,50,1366,1,0,0,-117,644,-342,265.44,-1.36,1.91,-1.08,90.12,15.47,40.3,0,0,0,0,
-29,50,1366,1,0,0,-117,644,-342,265.44,-1.36,1.91,-1.08,90.12,15.47,40.3,0,0,0,0,
-29,50,1366,1,0,0,-117,644,-342,265.44,-1.36,1.91,-1.08,90.12,15.47,40.3,0,0,0,0,
-26,50,1365,-3,0,-1,-117,644,-342,265.44,-1.36,1.91,-1.08,90.12,15.47,40.3,0,0,0,0,
-26,50,1365,-3,0,-1,-117,644,-342,265.44,-1.36,1.91,-1.08,90.12,15.47,40.3,0,0,0,0,
-26,50,1365,-3,0,-1,-117,644,-342,265.44,-1.36,1.91,-1.08,90.12,15.47,40.3,0,0,0,0,
-28,51,1365,-3,0,0,-117,644,-342,265.44,-1.36,1.91,-1.08,90.12,15.47,40.3,0,0,0,0,
-28,51,1365,-3,0,0,-114,646,-339,265.45,-1.36,1.91,-1.08,90.12,15.47,40.3,0,0,0,0,
-28,51,1365,-3,0,0,-114,646,-339,265.45,-1.36,1.91,-1.08,90.13,15.47,40.3,0,0,0,0,
-28,51,1365,-3,0,0,-114,646,-339,265.45,-1.36,1.91,-1.08,90.13,15.47,40.3,0,0,0,0,
-28,51,1365,-3,0,0,-114,646,-339,265.45,-1.36,1.91,-1.08,90.13,15.47,40.3,0,0,0,0,
-28,50,1364,0,-3,-1,-114,646,-339,265.45,-1.36,1.91,-1.08,90.13,15.47,40.3,0,0,0,0,
-28,50,1364,0,-3,-1,-114,646,-339,265.45,-1.36,1.91,-1.08,90.13,15.47,40.3,0,0,0,0,
-28,50,1364,0,-3,-1,-114,646,-339,265.45,-1.36,1.91,-1.08,90.13,15.47,40.3,0,0,0,0,
-26,47,1363,1,1,1,-114,646,-339,265.45,-1.36,1.91,-1.08,90.13,15.47,40.3,0,0,0,0,
-26,47,1363,1,1,1,-114,646,-339,265.45,-1.36,1.91,-1.08,90.13,15.47,40.3,0,0,0,0,
-27,52,1364,-2,1,2,-114,646,-339,265.45,-1.36,1.91,-1.08,90.13,15.47,40.3,0,0,0,0,
-27,52,1364,-2,1,2,-114,638,-343,265.45,-1.36,1.91,-1.08,90.13,15.47,40.3,0,0,0,0,
-27,52,1364,-2,1,2,-114,638,-343,265.45,-1.36,1.91,-1.08,90.13,15.47,40.3,0,0,0,0,
-27,52,1364,-2,1,2,-114,638,-343,265.45,-1.36,1.91,-1.08,90.13,15.47,40.3,0,0,0,0,
-27,52,1364,-2,1,2,-114,638,-343,265.45,-1.36,1.91,-1.08,90.13,15.47,40.3,0,0,0,0,
-32,50,1366,-2,0,0,-114,638,-343,265.45,-1.36,1.91,-1.08,90.13,15.47,40.3,0,0,0,0,
-32,50,1366,-2,0,0,-114,638,-343,265.45,-1.36,1.91,-1.08,90.13,15.47,40.3,0,0,0,0,
-32,50,1366,-2,0,0,-114,638,-343,265.45,-1.36,1.91,-1.08,90.13,15.47,40.3,0,0,0,0,
-29,49,1364,0,3,0,-114,638,-343,265.45,-1.36,1.91,-1.08,90.13,15.47,40.3,0,0,0,0,
-29,49,1364,0,3,0,-105,636,-327,265.47,-1.36,1.91,-1.08,90.13,15.47,40.3,0,0,0,0,
-29,49,1364,0,3,0,-105,636,-327,265.47,-1.36,1.92,-1.08,90.13,15.47,40.3,0,0,0,0,
-29,49,1364,0,3,0,-105,636,-327,265.47,-1.36,1.92,-1.08,90.13,15.47,40.3,0,0,0,0,
-29,49,1364,0,3,0,-105,636,-327,265.47,-1.36,1.92,-1.08,90.13,15.47,40.3,0,0,0,0,
-28,48,1364,1,0,2,-105,636,-327,265.47,-1.36,1.92,-1.08,90.13,15.47,40.3,0,0,0,0,
-28,48,1364,1,0,2,-105,636,-327,265.47,-1.36,1.92,-1.08,90.12,15.47,40.3,0,0,0,0,
-28,48,1364,1,0,2,-105,636,-327,265.47,-1.36,1.92,-1.08,90.12,15.47,40.3,0,0,0,0,
-29,50,1363,0,0,-1,-105,636,-327,265.47,-1.36,1.92,-1.08,90.12,15.47,40.3,0,0,0,0,
-29,50,1363,0,0,-1,-105,636,-327,265.47,-1.36,1.92,-1.08,90.12,15.47,40.3,0,0,0,0,
-28,50,1365,-2,0,0,-105,636,-327,265.47,-1.36,1.92,-1.08,90.12,15.47,40.3,0,0,0,0,
-28,50,1365,-2,0,0,-104,632,-329,265.46,-1.36,1.92,-1.08,90.12,15.47,40.3,0,0,0,0,
-28,50,1365,-2,0,0,-104,632,-329,265.46,-1.36,1.92,-1.08,90.13,15.47,40.3,0,0,0,0,
-28,50,1365,-2,0,0,-104,632,-329,265.46,-1.36,1.92,-1.08,90.13,15.47,40.3,0,0,0,0,
-28,50,1365,-2,0,0,-104,632,-329,265.46,-1.36,1.92,-1.08,90.13,15.47,40.3,0,0,0,0,
-28,50,1365,-2,0,0,-104,632,-329,265.46,-1.36,1.92,-1.08,90.13,15.47,40.3,0,0,0,0,
-31,53,1365,-1,0,0,-104,632,-329,265.46,-1.36,1.92,-1.08,90.13,15.47,40.3,0,0,0,0,
-31,53,1365,-1,0,0,-104,632,-329,265.46,-1.36,1.91,-1.08,90.13,15.47,40.3,0,0,0,0,
-31,53,1365,-1,0,0,-104,632,-329,265.46,-1.36,1.91,-1.08,90.13,15.47,40.3,0,0,0,0,
-27,50,1363,0,-1,1,-104,632,-329,265.46,-1.36,1.91,-1.08,90.13,15.47,40.3,0,0,0,0,
-27,50,1363,0,-1,1,-127,655,-333,265.43,-1.36,1.91,-1.08,90.13,15.47,40.3,0,0,0,0,
-27,50,1363,0,-1,1,-127,655,-333,265.43,-1.36,1.91,-1.08,90.12,15.47,40.3,0,0,0,0,
-27,50,1363,0,-1,1,-127,655,-333,265.43,-1.36,1.91,-1.08,90.12,15.47,40.3,0,0,0,0,
-27,50,1363,0,-1,1,-127,655,-333,265.43,-1.36,1.91,-1.08,90.12,15.47,40.3,0,0,0,0,
-29,52,1365,-3,-2,-1,-127,655,-333,265.43,-1.36,1.91,-1.08,90.12,15.47,40.3,0,0,0,0,
-29,52,1365,-3,-2,-1,-127,655,-333,265.43,-1.36,1.91,-1.08,90.13,15.47,40.3,0,0,0,0,
-29,52,1365,-3,-2,-1,-127,655,-333,265.43,-1.36,1.91,-1.08,90.13,15.47,40.3,0,0,0,0,
-26,49,1364,3,0,1,-127,655,-333,265.43,-1.36,1.91,-1.08,90.13,15.47,40.3,0,0,0,0,
-26,49,1364,3,0,1,-127,655,-333,265.43,-1.36,1.91,-1.08,90.13,15.47,40.3,0,0,0,0,
-27,50,1365,0,1,1,-127,655,-333,265.43,-1.36,1.91,-1.08,90.13,15.47,40.3,0,0,0,0,
-27,50,1365,0,1,1,-128,648,-344,265.46,-1.36,1.91,-1.08,90.13,15.47,40.3,0,0,0,0,
-27,50,1365,0,1,1,-128,648,-344,265.46,-1.36,1.92,-1.08,90.13,15.47,40.3,0,0,0,0,
-27,50,1365,0,1,1,-128,648,-344,265.46,-1.36,1.92,-1.08,90.13,15.47,40.3,0,0,0,0,
-27,50,1365,0,1,1,-128,648,-344,265.46,-1.36,1.92,-1.08,90.13,15.47,40.3,0,0,0,0,
-29,50,1363,-1,-2,1,-128,648,-344,265.46,-1.36,1.92,-1.08,90.13,15.47,40.3,0,0,0,0,
-29,50,1363,-1,-2,1,-128,648,-344,265.46,-1.36,1.92,-1.08,90.12,15.47,40.3,0,0,0,0,
-29,50,1363,-1,-2,1,-128,648,-344,265.46,-1.36,1.92,-1.08,90.12,15.47,40.3,0,0,0,0,
-28,50,1364,-3,0,0,-128,648,-344,265.46,-1.36,1.92,-1.08,90.12,15.47,40.3,0,0,0,0,
-28,50,1364,-3,0,0,-126,652,-343,265.43,-1.36,1.92,-1.08,90.12,15.47,40.3,0,0,0,0,
-28,50,1364,-3,0,0,-126,652,-343,265.43,-1.36,1.91,-1.08,90.12,15.47,40.3,0,0,0,0,
-28,50,1364,-3,0,0,-126,652,-343,265.43,-1.36,1.91,-1.08,90.12,15.47,40.3,0,0,0,0,
-28,50,1364,-3,0,0,-126,652,-343,265.43,-1.36,1.91,-1.08,90.12,15.47,40.3,0,0,0,0,
-26,47,1364,-3,1,-1,-126,652,-343,265.43,-1.36,1.91,-1.08,90.12,15.47,40.3,0,0,0,0,
-26,47,1364,-3,1,-1,-126,652,-343,265.43,-1.36,1.91,-1.08,90.13,15.47,40.3,0,0,0,0,
-26,47,1364,-3,1,-1,-126,652,-343,265.43,-1.36,1.91,-1.08,90.13,15.47,40.3,0,0,0,0,
-27,48,1364,-2,2,-1,-126,652,-343,265.43,-1.36,1.91,-1.08,90.13,15.47,40.3,0,0,0,0,
-27,48,1364,-2,2,-1,-126,652,-343,265.43,-1.36,1.91,-1.08,90.13,15.47,40.3,0,0,0,0,
-27,51,1364,0,0,0,-126,652,-343,265.43,-1.36,1.91,-1.08,90.13,15.47,40.3,0,0,0,0,
-27,51,1364,0,0,0,-127,649,-327,265.46,-1.36,1.91,-1.08,90.13,15.47,40.3,0,0,0,0,
-27,51,1364,0,0,0,-127,649,-327,265.46,-1.36,1.91,-1.08,90.13,15.47,40.3,0,0,0,0,
-27,51,1364,0,0,0,-127,649,-327,265.46,-1.36,1.91,-1.08,90.13,15.47,40.3,0,0,0,0,
-27,51,1364,0,0,0,-127,649,-327,265.46,-1.36,1.91,-1.08,90.13,15.47,40.3,0,0,0,0,
-29,53,1365,-1,0,0,-127,649,-327,265.46,-1.36,1.91,-1.08,90.13,15.47,40.3,0,0,0,0,
-29,53,1365,-1,0,0,-127,649,-327,265.46,-1.36,1.91,-1.08,90.13,15.47,40.3,0,0,0,0,
-29,53,1365,-1,0,0,-127,649,-327,265.46,-1.36,1.91,-1.08,90.13,15.47,40.3,0,0,0,0,
-29,52,1363,0,0,-3,-127,649,-327,265.46,-1.36,1.91,-1.08,90.13,15.47,40.3,0,0,0,0,
-29,52,1363,0,0,-3,-104,633,-323,265.45,-1.36,1.91,-1.08,90.13,15.47,40.3,0,0,0,0,
-29,52,1363,0,0,-3,-104,633,-323,265.45,-1.36,1.91,-1.08,90.13,15.47,40.3,0,0,0,0,
-29,52,1363,0,0,-3,-104,633,-323,265.45,-1.36,1.91,-1.08,90.13,15.47,40.3,0,0,0,0,
-29,52,1363,0,0,-3,-104,633,-323,265.45,-1.36,1.91,-1.08,90.13,15.47,40.3,0,0,0,0,
-28,51,1364,-2,1,-2,-104,633,-323,265.45,-1.36,1.91,-1.08,90.13,15.47,40.3,0,0,0,0,
-28,51,1364,-2,1,-2,-104,633,-323,265.45,-1.36,1.91,-1.08,90.13,15.47,40.3,0,0,0,0,
-28,51,1364,-2,1,-2,-104,633,-323,265.45,-1.36,1.91,-1.08,90.13,15.47,40.3,0,0,0,0,
-26,49,1366,-3,2,0,-104,633,-323,265.45,-1.36,1.91,-1.08,90.13,15.47,40.3,0,0,0,0,
-26,49,1366,-3,2,0,-104,633,-323,265.45,-1.36,1.91,-1.08,90.13,15.47,40.3,0,0,0,0,
-31,50,1360,0,1,0,-104,633,-323,265.45,-1.36,1.91,-1.08,90.13,15.47,40.3,0,0,0,0,
-31,50,1360,0,1,0,-104,633,-342,265.44,-1.36,1.91,-1.08,90.13,15.47,40.3,0,0,0,0,
-31,50,1360,0,1,0,-104,633,-342,265.44,-1.36,1.91,-1.08,90.13,15.47,40.3,0,0,0,0,
-31,50,1360,0,1,0,-104,633,-342,265.44,-1.36,1.91,-1.08,90.13,15.47,40.3,0,0,0,0,
-31,50,1360,0,1,0,-104,633,-342,265.44,-1.36,1.91,-1.08,90.13,15.47,40.3,0,0,0,0,
-31,50,1360,0,1,0,-104,633,-342,265.44,-1.36,1.91,-1.08,90.13,15.47,40.3,0,0,0,0,
-26,46,1363,0,0,-2,-104,633,-342,265.44,-1.36,1.91,-1.08,90.13,15.47,40.3,0,0,0,0,
-26,46,1363,0,0,-2,-104,633,-342,265.44,-1.36,1.91,-1.08,90.13,15.47,40.3,0,0,0,0,
-26,46,1363,0,0,-2,-104,633,-342,265.44,-1.36,1.91,-1.08,90.13,15.47,40.3,0,0,0,0,
-28,50,1366,0,0,0,-104,633,-342,265.44,-1.36,1.91,-1.08,90.13,15.47,40.3,0,0,0,0,
-28,50,1366,0,0,0,-99,626,-326,265.41,-1.36,1.91,-1.08,90.13,15.47,40.3,0,0,0,0,
-28,50,1366,0,0,0,-99,626,-326,265.41,-1.36,1.92,-1.08,90.14,15.47,40.3,0,0,0,0,
-28,50,1366,0,0,0,-99,626,-326,265.41,-1.36,1.92,-1.08,90.14,15.47,40.3,0,0,0,0,
-28,50,1366,0,0,0,-99,626,-326,265.41,-1.36,1.92,-1.08,90.14,15.47,40.3,0,0,0,0,
-27,52,1363,-6,-2,0,-99,626,-326,265.41,-1.36,1.92,-1.08,90.14,15.47,40.3,0,0,0,0,
-27,52,1363,-6,-2,0,-99,626,-326,265.41,-1.36,1.91,-1.08,90.14,15.47,40.3,0,0,0,0,
-27,52,1363,-6,-2,0,-99,626,-326,265.41,-1.36,1.91,-1.08,90.14,15.47,40.3,0,0,0,0,
-26,51,1365,-8,-3,0,-99,626,-326,265.41,-1.36,1.91,-1.08,90.14,15.47,40.3,0,0,0,0,
-26,51,1365,-8,-3,0,-99,626,-326,265.41,-1.36,1.91,-1.08,90.14,15.47,40.3,0,0,0,0,
-28,50,1364,-6,1,0,-99,626,-326,265.41,-1.36,1.91,-1.08,90.14,15.47,40.3,0,0,0,0,
-28,50,1364,-6,1,0,-107,630,-322,265.44,-1.36,1.91,-1.08,90.14,15.47,40.3,0,0,0,0,
-28,50,1364,-6,1,0,-107,630,-322,265.44,-1.36,1.91,-1.08,90.13,15.47,40.3,0,0,0,0,
-28,50,1364,-6,1,0,-107,630,-322,265.44,-1.36,1.91,-1.08,90.13,15.47,40.3,0,0,0,0,
-28,50,1364,-6,1,0,-107,630,-322,265.44,-1.36,1.91,-1.08,90.13,15.47,40.3,0,0,0,0,
-30,51,1365,1,0,0,-107,630,-322,265.44,-1.36,1.91,-1.08,90.13,15.47,40.3,0,0,0,0,
-30,51,1365,1,0,0,-107,630,-322,265.44,-1.36,1.91,-1.08,90.14,15.47,40.3,0,0,0,0,
-30,51,1365,1,0,0,-107,630,-322,265.44,-1.36,1.91,-1.08,90.14,15.47,40.3,0,0,0,0,
-29,50,1364,3,0,-1,-107,630,-322,265.44,-1.36,1.91,-1.08,90.14,15.47,40.3,0,0,0,0,
-29,50,1364,3,0,-1,-106,630,-327,265.43,-1.36,1.91,-1.08,90.14,15.47,40.3,0,0,0,0,
-29,50,1364,3,0,-1,-106,630,-327,265.43,-1.36,1.91,-1.08,90.14,15.47,40.3,0,0,0,0,
-29,50,1364,3,0,-1,-106,630,-327,265.43,-1.36,1.91,-1.08,90.14,15.47,40.3,0,0,0,0,
-29,50,1364,3,0,-1,-106,630,-327,265.43,-1.36,1.91,-1.08,90.14,15.47,40.3,0,0,0,0,
-27,48,1365,-4,3,0,-106,630,-327,265.43,-1.36,1.91,-1.08,90.14,15.47,40.3,0,0,0,0,
-27,48,1365,-4,3,0,-106,630,-327,265.43,-1.36,1.91,-1.08,90.14,15.47,40.3,0,0,0,0,
-27,48,1365,-4,3,0,-106,630,-327,265.43,-1.36,1.91,-1.08,90.14,15.47,40.3,0,0,0,0,
-26,50,1365,-2,0,-1,-106,630,-327,265.43,-1.36,1.91,-1.08,90.14,15.47,40.3,0,0,0,0,
-26,50,1365,-2,0,-1,-106,630,-327,265.43,-1.36,1.91,-1.08,90.14,15.47,40.3,0,0,0,0,
-28,48,1364,0,-1,0,-106,630,-327,265.43,-1.36,1.91,-1.08,90.14,15.47,40.3,0,0,0,0,
-28,48,1364,0,-1,0,-107,630,-332,265.43,-1.36,1.91,-1.08,90.14,15.47,40.3,0,0,0,0,
-28,48,1364,0,-1,0,-107,630,-332,265.43,-1.36,1.9,-1.08,90.14,15.47,40.3,0,0,0,0,
-28,48,1364,0,-1,0,-107,630,-332,265.43,-1.36,1.9,-1.08,90.14,15.47,40.3,0,0,0,0,
-28,48,1364,0,-1,0,-107,630,-332,265.43,-1.36,1.9,-1.08,90.14,15.47,40.3,0,0,0,0,
-27,50,1365,0,0,-2,-107,630,-332,265.43,-1.36,1.9,-1.08,90.14,15.47,40.3,0,0,0,0,
-27,50,1365,0,0,-2,-107,630,-332,265.43,-1.36,1.91,-1.08,90.14,15.47,40.3,0,0,0,0,
-27,50,1365,0,0,-2,-107,630,-332,265.43,-1.36,1.91,-1.08,90.14,15.47,40.3,0,0,0,0,
-27,49,1364,-2,1,0,-107,630,-332,265.43,-1.36,1.91,-1.08,90.14,15.47,40.3,0,0,0,0,
-27,49,1364,-2,1,0,-101,633,-333,265.42,-1.36,1.91,-1.08,90.14,15.47,40.3,0,0,0,0,
-27,49,1364,-2,1,0,-101,633,-333,265.42,-1.36,1.91,-1.08,90.14,15.47,40.3,0,0,0,0,
-27,49,1364,-2,1,0,-101,633,-333,265.42,-1.36,1.91,-1.08,90.14,15.47,40.3,0,0,0,0,
-27,49,1364,-2,1,0,-101,633,-333,265.42,-1.36,1.91,-1.08,90.14,15.47,40.3,0,0,0,0,
-27,51,1365,0,-3,2,-101,633,-333,265.42,-1.36,1.91,-1.08,90.14,15.47,40.3,0,0,0,0,
-27,51,1365,0,-3,2,-101,633,-333,265.42,-1.36,1.91,-1.08,90.14,15.47,40.3,0,0,0,0,
-27,51,1365,0,-3,2,-101,633,-333,265.42,-1.36,1.91,-1.08,90.14,15.47,40.3,0,0,0,0,
-28,49,1362,-3,0,-2,-101,633,-333,265.42,-1.36,1.91,-1.08,90.14,15.47,40.3,0,0,0,0,
-28,49,1362,-3,0,-2,-101,633,-333,265.42,-1.36,1.91,-1.08,90.14,15.47,40.3,0,0,0,0,
-25,51,1364,-1,2,0,-101,633,-333,265.42,-1.36,1.91,-1.08,90.14,15.47,40.3,0,0,0,0,
-25,51,1364,-1,2,0,-105,633,-336,265.39,-1.36,1.91,-1.08,90.14,15.47,40.3,0,0,0,0,
-25,51,1364,-1,2,0,-105,633,-336,265.39,-1.36,1.91,-1.08,90.14,15.47,40.3,0,0,0,0,
-25,51,1364,-1,2,0,-105,633,-336,265.39,-1.36,1.91,-1.08,90.14,15.47,40.3,0,0,0,0,
-25,51,1364,-1,2,0,-105,633,-336,265.39,-1.36,1.91,-1.08,90.14,15.47,40.3,0,0,0,0,
-25,51,1364,-1,2,0,-105,633,-336,265.39,-1.36,1.91,-1.08,90.14,15.47,40.3,0,0,0,0,
-31,52,1363,0,0,0,-105,633,-336,265.39,-1.36,1.91,-1.08,90.14,15.47,40.3,0,0,0,0,
-31,52,1363,0,0,0,-105,633,-336,265.39,-1.36,1.91,-1.08,90.14,15.47,40.3,0,0,0,0,
-31,52,1363,0,0,0,-105,633,-336,265.39,-1.36,1.91,-1.08,90.14,15.47,40.3,0,0,0,0,
-28,48,1360,-1,1,-2,-105,633,-336,265.39,-1.36,1.91,-1.08,90.14,15.47,40.3,0,0,0,0,
-28,48,1360,-1,1,-2,-104,637,-336,265.42,-1.36,1.91,-1.08,90.14,15.47,40.3,0,0,0,0,
-28,48,1360,-1,1,-2,-104,637,-336,265.42,-1.36,1.91,-1.08,90.14,15.47,40.3,0,0,0,0,
-28,48,1360,-1,1,-2,-104,637,-336,265.42,-1.36,1.91,-1.08,90.14,15.47,40.3,0,0,0,0,
-28,48,1360,-1,1,-2,-104,637,-336,265.42,-1.36,1.91,-1.08,90.14,15.47,40.3,0,0,0,0,
-28,47,1367,-1,1,0,-104,637,-336,265.42,-1.36,1.91,-1.08,90.14,15.47,40.3,0,0,0,0,
-28,47,1367,-1,1,0,-104,637,-336,265.42,-1.36,1.91,-1.08,90.14,15.47,40.3,0,0,0,0,
-28,47,1367,-1,1,0,-104,637,-336,265.42,-1.36,1.91,-1.08,90.14,15.47,40.3,0,0,0,0,
-31,48,1366,0,-1,-1,-104,637,-336,265.42,-1.36,1.91,-1.08,90.14,15.47,40.3,0,0,0,0,
-31,48,1366,0,-1,-1,-104,637,-336,265.42,-1.36,1.91,-1.08,90.14,15.47,40.3,0,0,0,0,
-28,52,1365,-4,0,-1,-104,637,-336,265.42,-1.36,1.91,-1.08,90.14,15.47,40.3,0,0,0,0,
-28,52,1365,-4,0,-1,-103,627,-323,265.5,-1.36,1.91,-1.08,90.14,15.47,40.3,0,0,0,0,
-28,52,1365,-4,0,-1,-103,627,-323,265.5,-1.36,1.91,-1.08,90.14,15.47,40.3,0,0,0,0,
-28,52,1365,-4,0,-1,-103,627,-323,265.5,-1.36,1.91,-1.08,90.14,15.47,40.3,0,0,0,0,
-28,52,1365,-4,0,-1,-103,627,-323,265.5,-1.36,1.91,-1.08,90.14,15.47,40.3,0,0,0,0,
-28,51,1364,-3,1,1,-103,627,-323,265.5,-1.36,1.91,-1.08,90.14,15.47,40.3,0,0,0,0,
-28,51,1364,-3,1,1,-103,627,-323,265.5,-1.36,1.91,-1.08,90.14,15.47,40.3,0,0,0,0,
-28,51,1364,-3,1,1,-103,627,-323,265.5,-1.36,1.91,-1.08,90.14,15.47,40.3,0,0,0,0,
-30,53,1367,-2,1,0,-103,627,-323,265.5,-1.36,1.91,-1.08,90.14,15.47,40.3,0,0,0,0,
-30,53,1367,-2,1,0,-101,635,-334,265.42,-1.36,1.91,-1.08,90.14,15.47,40.3,0,0,0,0,
-30,53,1367,-2,1,0,-101,635,-334,265.42,-1.36,1.91,-1.08,90.14,15.47,40.3,0,0,0,0,
-30,53,1367,-2,1,0,-101,635,-334,265.42,-1.36,1.91,-1.08,90.14,15.47,40.3,0,0,0,0,
-30,53,1367,-2,1,0,-101,635,-334,265.42,-1.36,1.91,-1.08,90.14,15.47,40.3,0,0,0,0,
-26,54,1361,-2,-1,0,-101,635,-334,265.42,-1.36,1.91,-1.08,90.14,15.47,40.3,0,0,0,0,
-26,54,1361,-2,-1,0,-101,635,-334,265.42,-1.36,1.91,-1.08,90.14,15.47,40.3,0,0,0,0,
-26,54,1361,-2,-1,0,-101,635,-334,265.42,-1.36,1.91,-1.08,90.14,15.47,40.3,0,0,0,0,
-30,52,1364,0,-2,0,-101,635,-334,265.42,-1.36,1.91,-1.08,90.14,15.47,40.3,0,0,0,0,
-30,52,1364,0,-2,0,-101,635,-334,265.42,-1.36,1.91,-1.08,90.14,15.47,40.3,0,0,0,0,
-25,52,1363,-2,0,1,-101,635,-334,265.42,-1.36,1.91,-1.08,90.14,15.47,40.3,0,0,0,0,
-25,52,1363,-2,0,1,-108,631,-329,265.46,-1.36,1.91,-1.08,90.14,15.47,40.3,0,0,0,0,
-25,52,1363,-2,0,1,-108,631,-329,265.46,-1.36,1.91,-1.08,90.13,15.47,40.3,0,0,0,0,
-25,52,1363,-2,0,1,-108,631,-329,265.46,-1.36,1.91,-1.08,90.13,15.47,40.3,0,0,0,0,
-25,52,1363,-2,0,1,-108,631,-329,265.46,-1.36,1.91,-1.08,90.13,15.47,40.3,0,0,0,0,
-28,48,1364,-5,1,-3,-108,631,-329,265.46,-1.36,1.91,-1.08,90.13,15.47,40.3,0,0,0,0,
-28,48,1364,-5,1,-3,-108,631,-329,265.46,-1.36,1.91,-1.08,90.14,15.47,40.3,0,0,0,0,
-28,48,1364,-5,1,-3,-108,631,-329,265.46,-1.36,1.91,-1.08,90.14,15.47,40.3,0,0,0,0,
-31,50,1365,-2,0,1,-108,631,-329,265.46,-1.36,1.91,-1.08,90.14,15.47,40.3,0,0,0,0,
-31,50,1365,-2,0,1,-113,645,-330,265.42,-1.36,1.91,-1.08,90.14,15.47,40.3,0,0,0,0,
-31,50,1365,-2,0,1,-113,645,-330,265.42,-1.36,1.9,-1.08,90.14,15.47,40.3,0,0,0,0,
-31,50,1365,-2,0,1,-113,645,-330,265.42,-1.36,1.9,-1.08,90.14,15.47,40.3,0,0,0,0,
-31,50,1365,-2,0,1,-113,645,-330,265.42,-1.36,1.9,-1.08,90.14,15.47,40.3,0,0,0,0,
-29,49,1364,0,1,1,-113,645,-330,265.42,-1.36,1.9,-1.08,90.14,15.47,40.3,0,0,0,0,
-29,49,1364,0,1,1,-113,645,-330,265.42,-1.36,1.9,-1.08,90.14,15.47,40.3,0,0,0,0,
-29,49,1364,0,1,1,-113,645,-330,265.42,-1.36,1.9,-1.08,90.14,15.47,40.3,0,0,0,0,
-30,48,1363,2,0,-1,-113,645,-330,265.42,-1.36,1.9,-1.08,90.14,15.47,40.3,0,0,0,0,
-30,48,1363,2,0,-1,-113,645,-330,265.42,-1.36,1.9,-1.08,90.14,15.47,40.3,0,0,0,0,
-28,51,1364,-1,0,0,-113,645,-330,265.42,-1.36,1.9,-1.08,90.14,15.47,40.3,0,0,0,0,
-28,51,1364,-1,0,0,-115,640,-342,265.45,-1.36,1.9,-1.08,90.14,15.47,40.3,0,0,0,0,
-28,51,1364,-1,0,0,-115,640,-342,265.45,-1.36,1.91,-1.08,90.13,15.47,40.3,0,0,0,0,
-28,51,1364,-1,0,0,-115,640,-342,265.45,-1.36,1.91,-1.08,90.13,15.47,40.3,0,0,0,0,
-28,51,1364,-1,0,0,-115,640,-342,265.45,-1.36,1.91,-1.08,90.13,15.47,40.3,0,0,0,0,
-28,51,1364,-1,0,0,-115,640,-342,265.45,-1.36,1.91,-1.08,90.13,15.47,40.3,0,0,0,0,
-25,52,1364,-3,0,-1,-115,640,-342,265.45,-1.36,1.91,-1.08,90.13,15.47,40.3,0,0,0,0,
-25,52,1364,-3,0,-1,-115,640,-342,265.45,-1.36,1.9,-1.08,90.13,15.47,40.3,0,0,0,0,
-25,52,1364,-3,0,-1,-115,640,-342,265.45,-1.36,1.9,-1.08,90.13,15.47,40.3,0,0,0,0,
-26,55,1361,-2,0,-3,-115,640,-342,265.45,-1.36,1.9,-1.08,90.13,15.47,40.3,0,0,0,0,
-26,55,1361,-2,0,-3,-117,644,-334,265.32,-1.36,1.9,-1.08,90.13,15.47,40.3,0,0,0,0,
-26,55,1361,-2,0,-3,-117,644,-334,265.32,-1.36,1.9,-1.08,90.13,15.47,40.3,0,0,0,0,
-26,55,1361,-2,0,-3,-117,644,-334,265.32,-1.37,1.9,-1.08,90.13,15.47,40.3,0,0,0,0,
-26,55,1361,-2,0,-3,-117,644,-334,265.32,-1.37,1.9,-1.08,90.13,15.47,40.3,0,0,0,0,
-33,49,1364,0,-1,1,-117,644,-334,265.32,-1.37,1.9,-1.08,90.13,15.47,40.3,0,0,0,0,
-33,49,1364,0,-1,1,-117,644,-334,265.32,-1.37,1.91,-1.08,90.13,15.47,40.3,0,0,0,0,
-33,49,1364,0,-1,1,-117,644,-334,265.32,-1.37,1.91,-1.08,90.13,15.47,40.3,0,0,0,0,
-25,53,1367,-4,1,1,-117,644,-334,265.32,-1.37,1.91,-1.08,90.13,15.47,40.3,0,0,0,0,
-25,53,1367,-4,1,1,-117,644,-334,265.32,-1.37,1.91,-1.08,90.13,15.47,40.3,0,0,0,0,
-30,49,1365,0,0,1,-117,644,-334,265.32,-1.37,1.91,-1.08,90.13,15.47,40.3,0,0,0,0,
-30,49,1365,0,0,1,-114,645,-341,265.52,-1.37,1.91,-1.08,90.13,15.47,40.3,0,0,0,0,
-30,49,1365,0,0,1,-114,645,-341,265.52,-1.37,1.91,-1.08,90.13,15.47,40.3,0,0,0,0,
-30,49,1365,0,0,1,-114,645,-341,265.52,-1.37,1.91,-1.08,90.13,15.47,40.3,0,0,0,0,
-30,49,1365,0,0,1,-114,645,-341,265.52,-1.37,1.91,-1.08,90.13,15.47,40.3,0,0,0,0,
-26,50,1367,5,1,3,-114,645,-341,265.52,-1.37,1.91,-1.08,90.13,15.47,40.3,0,0,0,0,
-26,50,1367,5,1,3,-114,645,-341,265.52,-1.37,1.91,-1.08,90.13,15.47,40.3,0,0,0,0,
-26,50,1367,5,1,3,-114,645,-341,265.52,-1.37,1.91,-1.08,90.13,15.47,40.3,0,0,0,0,
-29,50,1364,0,0,0,-114,645,-341,265.52,-1.37,1.91,-1.08,90.13,15.47,40.3,0,0,0,0,
-29,50,1364,0,0,0,-108,639,-341,265.37,-1.37,1.91,-1.08,90.13,15.47,40.3,0,0,0,0,
-29,50,1364,0,0,0,-108,639,-341,265.37,-1.37,1.91,-1.08,90.13,15.47,40.3,0,0,0,0,
-29,50,1364,0,0,0,-108,639,-341,265.37,-1.37,1.91,-1.08,90.13,15.47,40.3,0,0,0,0,
-29,50,1364,0,0,0,-108,639,-341,265.37,-1.37,1.91,-1.08,90.13,15.47,40.3,0,0,0,0,
-25,49,1361,-1,0,1,-108,639,-341,265.37,-1.37,1.91,-1.08,90.13,15.47,40.3,0,0,0,0,
-25,49,1361,-1,0,1,-108,639,-341,265.37,-1.37,1.91,-1.08,90.13,15.47,40.3,0,0,0,0,
-25,49,1361,-1,0,1,-108,639,-341,265.37,-1.37,1.91,-1.08,90.13,15.47,40.3,0,0,0,0,
-28,50,1366,-4,0,0,-108,639,-341,265.37,-1.37,1.91,-1.08,90.13,15.47,40.3,0,0,0,0,
-28,50,1366,-4,0,0,-108,639,-341,265.37,-1.37,1.91,-1.08,90.13,15.47,40.3,0,0,0,0,
-25,49,1361,-3,-2,-3,-108,639,-341,265.37,-1.37,1.91,-1.08,90.13,15.47,40.3,0,0,0,0,
-25,49,1361,-3,-2,-3,-117,641,-331,265.45,-1.37,1.91,-1.08,90.13,15.47,40.3,0,0,0,0,
-25,49,1361,-3,-2,-3,-117,641,-331,265.45,-1.37,1.91,-1.08,90.13,15.47,40.3,0,0,0,0,
-25,49,1361,-3,-2,-3,-117,641,-331,265.45,-1.37,1.91,-1.08,90.13,15.47,40.3,0,0,0,0,
-25,49,1361,-3,-2,-3,-117,641,-331,265.45,-1.37,1.91,-1.08,90.13,15.47,40.3,0,0,0,0,
-29,49,1368,0,1,0,-117,641,-331,265.45,-1.37,1.91,-1.08,90.13,15.47,40.3,0,0,0,0,
-29,49,1368,0,1,0,-117,641,-331,265.45,-1.37,1.91,-1.08,90.13,15.47,40.3,0,0,0,0,
-29,49,1368,0,1,0,-117,641,-331,265.45,-1.37,1.91,-1.08,90.13,15.47,40.3,0,0,0,0,
-30,51,1364,0,2,2,-117,641,-331,265.45,-1.37,1.91,-1.08,90.13,15.47,40.3,0,0,0,0,
-30,51,1364,0,2,2,-117,640,-328,265.43,-1.37,1.91,-1.08,90.13,15.47,40.3,0,0,0,0,
-30,51,1364,0,2,2,-117,640,-328,265.43,-1.37,1.91,-1.08,90.13,15.47,40.3,0,0,0,0,
-30,51,1364,0,2,2,-117,640,-328,265.43,-1.37,1.91,-1.08,90.13,15.47,40.3,0,0,0,0,
-30,51,1364,0,2,2,-117,640,-328,265.43,-1.37,1.91,-1.08,90.13,15.47,40.3,0,0,0,0,
-25,49,1364,-1,-2,1,-117,640,-328,265.43,-1.37,1.91,-1.08,90.13,15.47,40.3,0,0,0,0,
-25,49,1364,-1,-2,1,-117,640,-328,265.43,-1.37,1.91,-1.08,90.13,15.47,40.3,0,0,0,0,
-25,49,1364,-1,-2,1,-117,640,-328,265.43,-1.37,1.91,-1.08,90.13,15.47,40.3,0,0,0,0,
-29,49,1363,-1,0,1,-117,640,-328,265.43,-1.37,1.91,-1.08,90.13,15.47,40.3,0,0,0,0,
-29,49,1363,-1,0,1,-117,640,-328,265.43,-1.37,1.91,-1.08,90.13,15.47,40.3,0,0,0,0,
-31,48,1364,0,0,0,-117,640,-328,265.43,-1.37,1.91,-1.08,90.13,15.47,40.3,0,0,0,0,
-31,48,1364,0,0,0,-118,639,-342,265.47,-1.37,1.91,-1.08,90.13,15.47,40.3,0,0,0,0,
-31,48,1364,0,0,0,-118,639,-342,265.47,-1.37,1.91,-1.08,90.13,15.47,40.3,0,0,0,0,
-31,48,1364,0,0,0,-118,639,-342,265.47,-1.37,1.91,-1.08,90.13,15.47,40.3,0,0,0,0,
-31,48,1364,0,0,0,-118,639,-342,265.47,-1.37,1.91,-1.08,90.13,15.47,40.3,0,0,0,0,
-31,48,1364,0,0,0,-118,639,-342,265.47,-1.37,1.91,-1.08,90.13,15.47,40.3,0,0,0,0,
-28,51,1364,0,0,3,-118,639,-342,265.47,-1.37,1.91,-1.08,90.13,15.47,40.3,0,0,0,0,
-28,51,1364,0,0,3,-118,639,-342,265.47,-1.37,1.91,-1.08,90.13,15.47,40.3,0,0,0,0,
-28,51,1364,0,0,3,-118,639,-342,265.47,-1.37,1.91,-1.08,90.13,15.47,40.3,0,0,0,0,
-31,49,1365,0,-1,-1,-118,639,-342,265.47,-1.37,1.91,-1.08,90.13,15.47,40.3,0,0,0,0,
-31,49,1365,0,-1,-1,-116,641,-330,265.45,-1.37,1.91,-1.08,90.13,15.47,40.3,0,0,0,0,
-31,49,1365,0,-1,-1,-116,641,-330,265.45,-1.37,1.91,-1.08,90.13,15.47,40.3,0,0,0,0,
-31,49,1365,0,-1,-1,-116,641,-330,265.45,-1.37,1.91,-1.08,90.13,15.47,40.3,0,0,0,0,
-31,49,1365,0,-1,-1,-116,641,-330,265.45,-1.37,1.91,-1.08,90.13,15.47,40.3,0,0,0,0,
-29,50,1366,0,0,1,-116,641,-330,265.45,-1.37,1.91,-1.08,90.13,15.47,40.3,0,0,0,0,
-29,50,1366,0,0,1,-116,641,-330,265.45,-1.37,1.91,-1.08,90.13,15.47,40.3,0,0,0,0,
-29,50,1366,0,0,1,-116,641,-330,265.45,-1.37,1.91,-1.08,90.13,15.47,40.3,0,0,0,0,
-27,52,1366,-1,0,2,-116,641,-330,265.45,-1.37,1.91,-1.08,90.13,15.47,40.3,0,0,0,0,
-27,52,1366,-1,0,2,-116,641,-330,265.45,-1.37,1.91,-1.08,90.13,15.47,40.3,0,0,0,0,
-30,51,1365,-1,-1,-2,-116,641,-330,265.45,-1.37,1.91,-1.08,90.13,15.47,40.3,0,0,0,0,
-30,51,1365,-1,-1,-2,-116,641,-319,265.42,-1.37,1.91,-1.08,90.13,15.47,40.3,0,0,0,0,
-30,51,1365,-1,-1,-2,-116,641,-319,265.42,-1.37,1.91,-1.08,90.13,15.47,40.3,0,0,0,0,
-30,51,1365,-1,-1,-2,-116,641,-319,265.42,-1.37,1.91,-1.08,90.13,15.47,40.3,0,0,0,0,
-30,51,1365,-1,-1,-2,-116,641,-319,265.42,-1.37,1.91,-1.08,90.13,15.47,40.3,0,0,0,0,
-27,54,1364,-2,0,-1,-116,641,-319,265.42,-1.37,1.91,-1.08,90.13,15.47,40.3,0,0,0,0,
-27,54,1364,-2,0,-1,-116,641,-319,265.42,-1.37,1.91,-1.08,90.13,15.47,40.3,0,0,0,0,
-27,54,1364,-2,0,-1,-116,641,-319,265.42,-1.37,1.91,-1.08,90.13,15.47,40.3,0,0,0,0,
-27,49,1366,0,0,0,-116,641,-319,265.42,-1.37,1.91,-1.08,90.13,15.47,40.3,0,0,0,0,
-27,49,1366,0,0,0,-104,629,-336,265.45,-1.37,1.91,-1.08,90.13,15.47,40.3,0,0,0,0,
-27,49,1366,0,0,0,-104,629,-336,265.45,-1.37,1.91,-1.08,90.13,15.47,40.3,0,0,0,0,
-27,49,1366,0,0,0,-104,629,-336,265.45,-1.37,1.91,-1.08,90.13,15.47,40.3,0,0,0,0,
-27,49,1366,0,0,0,-104,629,-336,265.45,-1.37,1.91,-1.08,90.13,15.47,40.3,0,0,0,0,
-28,53,1364,-2,0,-1,-104,629,-336,265.45,-1.37,1.91,-1.08,90.13,15.47,40.3,0,0,0,0,
-28,53,1364,-2,0,-1,-104,629,-336,265.45,-1.37,1.91,-1.08,90.13,15.47,40.3,0,0,0,0,
-28,53,1364,-2,0,-1,-104,629,-336,265.45,-1.37,1.91,-1.08,90.13,15.47,40.3,0,0,0,0,
-27,51,1365,-6,0,-3,-104,629,-336,265.45,-1.37,1.91,-1.08,90.13,15.47,40.3,0,0,0,0,
-27,51,1365,-6,0,-3,-104,629,-336,265.45,-1.37,1.91,-1.08,90.13,15.47,40.3,0,0,0,0,
-28,50,1363,-1,1,-1,-104,629,-336,265.45,-1.37,1.91,-1.08,90.13,15.47,40.3,0,0,0,0,
-28,50,1363,-1,1,-1,-100,631,-330,265.38,-1.37,1.91,-1.08,90.13,15.47,40.3,0,0,0,0,
-28,50,1363,-1,1,-1,-100,631,-330,265.38,-1.37,1.91,-1.08,90.13,15.47,40.3,0,0,0,0,
-28,50,1363,-1,1,-1,-100,631,-330,265.38,-1.37,1.91,-1.08,90.13,15.47,40.3,0,0,0,0,
-28,50,1363,-1,1,-1,-100,631,-330,265.38,-1.37,1.91,-1.08,90.13,15.47,40.3,0,0,0,0,
-28,48,1365,-1,0,2,-100,631,-330,265.38,-1.37,1.91,-1.08,90.13,15.47,40.3,0,0,0,0,
-28,48,1365,-1,0,2,-100,631,-330,265.38,-1.37,1.91,-1.08,90.13,15.47,40.3,0,0,0,0,
-28,48,1365,-1,0,2,-100,631,-330,265.38,-1.37,1.91,-1.08,90.13,15.47,40.3,0,0,0,0,
-28,51,1365,0,0,0,-100,631,-330,265.38,-1.37,1.91,-1.08,90.13,15.47,40.3,0,0,0,0,
-28,51,1365,0,0,0,-113,640,-329,265.44,-1.37,1.91,-1.08,90.13,15.47,40.3,0,0,0,0,
-28,51,1365,0,0,0,-113,640,-329,265.44,-1.37,1.91,-1.08,90.13,15.47,40.3,0,0,0,0,
-28,51,1365,0,0,0,-113,640,-329,265.44,-1.37,1.91,-1.08,90.13,15.47,40.3,0,0,0,0,
-28,51,1365,0,0,0,-113,640,-329,265.44,-1.37,1.91,-1.08,90.13,15.47,40.3,0,0,0,0,
-26,52,1364,-2,0,-1,-113,640,-329,265.44,-1.37,1.91,-1.08,90.13,15.47,40.3,0,0,0,0,
-26,52,1364,-2,0,-1,-113,640,-329,265.44,-1.37,1.91,-1.08,90.13,15.47,40.3,0,0,0,0,
-26,52,1364,-2,0,-1,-113,640,-329,265.44,-1.37,1.91,-1.08,90.13,15.47,40.3,0,0,0,0,
-27,51,1363,-2,0,2,-113,640,-329,265.44,-1.37,1.91,-1.08,90.13,15.47,40.3,0,0,0,0,
-27,51,1363,-2,0,2,-113,640,-329,265.44,-1.37,1.91,-1.08,90.13,15.47,40.3,0,0,0,0,
-32,47,1365,-6,0,-1,-113,640,-329,265.44,-1.37,1.91,-1.08,90.13,15.47,40.3,0,0,0,0,
-32,47,1365,-6,0,-1,-118,641,-334,265.45,-1.37,1.91,-1.08,90.13,15.47,40.3,0,0,0,0,
-32,47,1365,-6,0,-1,-118,641,-334,265.45,-1.37,1.91,-1.08,90.13,15.47,40.3,0,0,0,0,
-32,47,1365,-6,0,-1,-118,641,-334,265.45,-1.37,1.91,-1.08,90.13,15.47,40.3,0,0,0,0,
-32,47,1365,-6,0,-1,-118,641,-334,265.45,-1.37,1.91,-1.08,90.13,15.47,40.3,0,0,0,0,
-32,47,1365,-6,0,-1,-118,641,-334,265.45,-1.37,1.91,-1.08,90.13,15.47,40.3,0,0,0,0,
-28,51,1365,2,-1,-2,-118,641,-334,265.45,-1.37,1.91,-1.08,90.13,15.47,40.3,0,0,0,0,
-28,51,1365,2,-1,-2,-118,641,-334,265.45,-1.37,1.91,-1.08,90.13,15.47,40.3,0,0,0,0,
-28,51,1365,2,-1,-2,-118,641,-334,265.45,-1.37,1.91,-1.08,90.13,15.47,40.3,0,0,0,0,
-29,48,1365,-4,0,0,-118,641,-334,265.45,-1.37,1.91,-1.08,90.13,15.47,40.3,0,0,0,0,
-29,48,1365,-4,0,0,-114,643,-326,265.45,-1.37,1.91,-1.08,90.13,15.47,40.3,0,0,0,0,
-29,48,1365,-4,0,0,-114,643,-326,265.45,-1.37,1.91,-1.08,90.13,15.47,40.3,0,0,0,0,
-29,48,1365,-4,0,0,-114,643,-326,265.45,-1.37,1.91,-1.08,90.13,15.47,40.3,0,0,0,0,
-29,48,1365,-4,0,0,-114,643,-326,265.45,-1.37,1.91,-1.08,90.13,15.47,40.3,0,0,0,0,
-28,50,1363,0,0,2,-114,643,-326,265.45,-1.37,1.91,-1.08,90.13,15.47,40.3,0,0,0,0,
-28,50,1363,0,0,2,-114,643,-326,265.45,-1.37,1.91,-1.08,90.13,15.47,40.3,0,0,0,0,
-28,50,1363,0,0,2,-114,643,-326,265.45,-1.37,1.91,-1.08,90.13,15.47,40.3,0,0,0,0,
-26,50,1365,-1,0,0,-114,643,-326,265.45,-1.37,1.91,-1.08,90.13,15.47,40.3,0,0,0,0,
-26,50,1365,-1,0,0,-114,643,-326,265.45,-1.37,1.91,-1.08,90.13,15.47,40.3,0,0,0,0,
-29,49,1364,-4,-1,0,-114,643,-326,265.45,-1.37,1.91,-1.08,90.13,15.47,40.3,0,0,0,0,
-29,49,1364,-4,-1,0,-113,639,-332,265.42,-1.37,1.91,-1.08,90.13,15.47,40.3,0,0,0,0,
-29,49,1364,-4,-1,0,-113,639,-332,265.42,-1.37,1.91,-1.08,90.13,15.47,40.3,0,0,0,0,
-29,49,1364,-4,-1,0,-113,639,-332,265.42,-1.37,1.91,-1.08,90.13,15.47,40.3,0,0,0,0,
-29,49,1364,-4,-1,0,-113,639,-332,265.42,-1.37,1.91,-1.08,90.13,15.47,40.3,0,0,0,0,
-31,49,1368,0,1,-4,-113,639,-332,265.42,-1.37,1.91,-1.08,90.13,15.47,40.3,0,0,0,0,
-31,49,1368,0,1,-4,-113,639,-332,265.42,-1.37,1.91,-1.08,90.13,15.47,40.3,0,0,0,0,
-31,49,1368,0,1,-4,-113,639,-332,265.42,-1.37,1.91,-1.08,90.13,15.47,40.3,0,0,0,0,
-25,51,1362,0,0,0,-113,639,-332,265.42,-1.37,1.91,-1.08,90.13,15.47,40.3,0,0,0,0,
-25,51,1362,0,0,0,-120,638,-331,265.43,-1.37,1.91,-1.08,90.13,15.47,40.3,0,0,0,0,
-25,51,1362,0,0,0,-120,638,-331,265.43,-1.37,1.91,-1.08,90.13,15.47,40.3,0,0,0,0,
-25,51,1362,0,0,0,-120,638,-331,265.43,-1.37,1.91,-1.08,90.13,15.47,40.3,0,0,0,0,
-25,51,1362,0,0,0,-120,638,-331,265.43,-1.37,1.91,-1.08,90.13,15.47,40.3,0,0,0,0,
-26,50,1366,-4,0,-1,-120,638,-331,265.43,-1.37,1.91,-1.08,90.13,15.47,40.3,0,0,0,0,
-26,50,1366,-4,0,-1,-120,638,-331,265.43,-1.37,1.91,-1.08,90.13,15.47,40.3,0,0,0,0,
-26,50,1366,-4,0,-1,-120,638,-331,265.43,-1.37,1.91,-1.08,90.13,15.47,40.3,0,0,0,0,
-31,50,1366,-5,-1,-1,-120,638,-331,265.43,-1.37,1.91,-1.08,90.13,15.47,40.3,0,0,0,0,
-31,50,1366,-5,-1,-1,-120,638,-331,265.43,-1.37,1.91,-1.08,90.13,15.47,40.3,0,0,0,0,
-29,50,1362,1,4,-1,-120,638,-331,265.43,-1.37,1.91,-1.08,90.13,15.47,40.3,0,0,0,0,
-29,50,1362,1,4,-1,-114,641,-341,265.39,-1.37,1.91,-1.08,90.13,15.47,40.3,0,0,0,0,
-29,50,1362,1,4,-1,-114,641,-341,265.39,-1.37,1.91,-1.08,90.13,15.47,40.3,0,0,0,0,
-29,50,1362,1,4,-1,-114,641,-341,265.39,-1.37,1.91,-1.08,90.13,15.47,40.3,0,0,0,0,
-29,50,1362,1,4,-1,-114,641,-341,265.39,-1.37,1.91,-1.08,90.13,15.47,40.3,0,0,0,0,
-31,50,1366,-2,0,-1,-114,641,-341,265.39,-1.37,1.91,-1.08,90.13,15.47,40.3,0,0,0,0,
-31,50,1366,-2,0,-1,-114,641,-341,265.39,-1.37,1.91,-1.08,90.13,15.47,40.3,0,0,0,0,
-31,50,1366,-2,0,-1,-114,641,-341,265.39,-1.37,1.91,-1.08,90.13,15.47,40.3,0,0,0,0,
-28,49,1363,-3,1,1,-114,641,-341,265.39,-1.37,1.91,-1.08,90.13,15.47,40.3,0,0,0,0,
-28,49,1363,-3,1,1,-120,638,-335,265.41,-1.37,1.91,-1.08,90.13,15.47,40.3,0,0,0,0,
-28,49,1363,-3,1,1,-120,638,-335,265.41,-1.37,1.9,-1.08,90.13,15.47,40.3,0,0,0,0,
-28,49,1363,-3,1,1,-120,638,-335,265.41,-1.37,1.9,-1.08,90.13,15.47,40.3,0,0,0,0,
-28,49,1363,-3,1,1,-120,638,-335,265.41,-1.37,1.9,-1.08,90.13,15.47,40.3,0,0,0,0,
-25,51,1365,0,2,0,-120,638,-335,265.41,-1.37,1.9,-1.08,90.13,15.47,40.3,0,0,0,0,
-25,51,1365,0,2,0,-120,638,-335,265.41,-1.37,1.91,-1.08,90.13,15.47,40.3,0,0,0,0,
-25,51,1365,0,2,0,-120,638,-335,265.41,-1.37,1.91,-1.08,90.13,15.47,40.3,0,0,0,0,
-28,49,1365,0,-2,3,-120,638,-335,265.41,-1.37,1.91,-1.08,90.13,15.47,40.3,0,0,0,0,
-28,49,1365,0,-2,3,-120,638,-335,265.41,-1.37,1.91,-1.08,90.13,15.47,40.3,0,0,0,0,
-30,49,1364,0,2,-2,-120,638,-335,265.41,-1.37,1.91,-1.08,90.13,15.47,40.3,0,0,0,0,
-30,49,1364,0,2,-2,-115,638,-329,265.45,-1.37,1.91,-1.08,90.13,15.47,40.3,0,0,0,0,
-30,49,1364,0,2,-2,-115,638,-329,265.45,-1.37,1.91,-1.08,90.13,15.47,40.3,0,0,0,0,
-30,49,1364,0,2,-2,-115,638,-329,265.45,-1.37,1.91,-1.08,90.13,15.47,40.3,0,0,0,0,
-30,49,1364,0,2,-2,-115,638,-329,265.45,-1.37,1.91,-1.08,90.13,15.47,40.3,0,0,0,0,
-30,49,1364,0,2,-2,-115,638,-329,265.45,-1.37,1.91,-1.08,90.13,15.47,40.3,0,0,0,0,
-30,50,1365,-3,2,1,-115,638,-329,265.45,-1.37,1.91,-1.08,90.13,15.47,40.3,0,0,0,0,
-30,50,1365,-3,2,1,-115,638,-329,265.45,-1.37,1.91,-1.08,90.13,15.47,40.3,0,0,0,0,
-30,50,1365,-3,2,1,-115,638,-329,265.45,-1.37,1.91,-1.08,90.13,15.47,40.3,0,0,0,0,
-27,51,1363,-4,-3,-1,-115,638,-329,265.45,-1.37,1.91,-1.08,90.13,15.47,40.3,0,0,0,0,
-27,51,1363,-4,-3,-1,-114,645,-342,265.39,-1.37,1.91,-1.08,90.13,15.47,40.3,0,0,0,0,
-27,51,1363,-4,-3,-1,-114,645,-342,265.39,-1.37,1.9,-1.08,90.13,15.47,40.3,0,0,0,0,
-27,51,1363,-4,-3,-1,-114,645,-342,265.39,-1.37,1.9,-1.08,90.13,15.47,40.3,0,0,0,0,
-27,51,1363,-4,-3,-1,-114,645,-342,265.39,-1.37,1.9,-1.08,90.13,15.47,40.3,0,0,0,0,
-27,50,1365,-3,-1,1,-114,645,-342,265.39,-1.37,1.9,-1.08,90.13,15.47,40.3,0,0,0,0,
-27,50,1365,-3,-1,1,-114,645,-342,265.39,-1.37,1.9,-1.08,90.13,15.47,40.3,0,0,0,0,
-27,50,1365,-3,-1,1,-114,645,-342,265.39,-1.37,1.9,-1.08,90.13,15.47,40.3,0,0,0,0,
-27,48,1362,-1,2,-2,-114,645,-342,265.39,-1.37,1.9,-1.08,90.13,15.47,40.3,0,0,0,0,
-27,48,1362,-1,2,-2,-114,645,-342,265.39,-1.37,1.9,-1.08,90.13,15.47,40.3,0,0,0,0,
-27,49,1366,-1,-1,0,-114,645,-342,265.39,-1.37,1.9,-1.08,90.13,15.47,40.3,0,0,0,0,
-27,49,1366,-1,-1,0,-113,644,-347,265.43,-1.37,1.9,-1.08,90.13,15.47,40.3,0,0,0,0,
-27,49,1366,-1,-1,0,-113,644,-347,265.43,-1.37,1.91,-1.08,90.13,15.47,40.3,0,0,0,0,
-27,49,1366,-1,-1,0,-113,644,-347,265.43,-1.37,1.91,-1.08,90.13,15.47,40.3,0,0,0,0,
-27,49,1366,-1,-1,0,-113,644,-347,265.43,-1.37,1.91,-1.08,90.13,15.47,40.3,0,0,0,0,
-28,51,1361,-2,-2,0,-113,644,-347,265.43,-1.37,1.91,-1.08,90.13,15.47,40.3,0,0,0,0,
-28,51,1361,-2,-2,0,-113,644,-347,265.43,-1.37,1.9,-1.08,90.13,15.47,40.3,0,0,0,0,
-28,51,1361,-2,-2,0,-113,644,-347,265.43,-1.37,1.9,-1.08,90.13,15.47,40.3,0,0,0,0,
-28,52,1361,-2,1,-1,-113,644,-347,265.43,-1.37,1.9,-1.08,90.13,15.47,40.3,0,0,0,0,
-28,52,1361,-2,1,-1,-100,628,-334,265.42,-1.37,1.9,-1.08,90.13,15.47,40.3,0,0,0,0,
-28,52,1361,-2,1,-1,-100,628,-334,265.42,-1.37,1.91,-1.08,90.13,15.47,40.3,0,0,0,0,
-28,52,1361,-2,1,-1,-100,628,-334,265.42,-1.37,1.91,-1.08,90.13,15.47,40.3,0,0,0,0,
-28,52,1361,-2,1,-1,-100,628,-334,265.42,-1.37,1.91,-1.08,90.13,15.47,40.3,0,0,0,0,
-27,50,1364,0,2,0,-100,628,-334,265.42,-1.37,1.91,-1.08,90.13,15.47,40.3,0,0,0,0,
-27,50,1364,0,2,0,-100,628,-334,265.42,-1.37,1.91,-1.08,90.13,15.47,40.3,0,0,0,0,
-27,50,1364,0,2,0,-100,628,-334,265.42,-1.37,1.91,-1.08,90.13,15.47,40.3,0,0,0,0,
-30,52,1365,-6,-2,-1,-100,628,-334,265.42,-1.37,1.91,-1.08,90.13,15.47,40.3,0,0,0,0,
-30,52,1365,-6,-2,-1,-100,628,-334,265.42,-1.37,1.91,-1.08,90.13,15.47,40.3,0,0,0,0,
-28,48,1365,-1,1,-2,-100,628,-334,265.42,-1.37,1.91,-1.08,90.13,15.47,40.3,0,0,0,0,
-28,48,1365,-1,1,-2,-104,630,-330,265.41,-1.37,1.91,-1.08,90.13,15.47,40.3,0,0,0,0,
-28,48,1365,-1,1,-2,-104,630,-330,265.41,-1.37,1.9,-1.08,90.13,15.47,40.3,0,0,0,0,
-28,48,1365,-1,1,-2,-104,630,-330,265.41,-1.37,1.9,-1.08,90.13,15.47,40.3,0,0,0,0,
-28,48,1365,-1,1,-2,-104,630,-330,265.41,-1.37,1.9,-1.08,90.13,15.47,40.3,0,0,0,0,
-31,52,1364,0,-1,-3,-104,630,-330,265.41,-1.37,1.9,-1.08,90.13,15.47,40.3,0,0,0,0,
-31,52,1364,0,-1,-3,-104,630,-330,265.41,-1.37,1.9,-1.08,90.13,15.47,40.3,0,0,0,0,
-31,52,1364,0,-1,-3,-104,630,-330,265.41,-1.37,1.9,-1.08,90.13,15.47,40.3,0,0,0,0,
-25,51,1365,-3,-1,-2,-104,630,-330,265.41,-1.37,1.9,-1.08,90.13,15.47,40.3,0,0,0,0,
-25,51,1365,-3,-1,-2,-104,632,-328,265.44,-1.37,1.9,-1.08,90.13,15.47,40.3,0,0,0,0,
-25,51,1365,-3,-1,-2,-104,632,-328,265.44,-1.37,1.9,-1.08,90.13,15.47,40.3,0,0,0,0,
-25,51,1365,-3,-1,-2,-104,632,-328,265.44,-1.37,1.9,-1.08,90.13,15.47,40.3,0,0,0,0,
-25,51,1365,-3,-1,-2,-104,632,-328,265.44,-1.37,1.9,-1.08,90.13,15.47,40.3,0,0,0,0,
-29,50,1364,-2,0,0,-104,632,-328,265.44,-1.37,1.9,-1.08,90.13,15.47,40.3,0,0,0,0,
-29,50,1364,-2,0,0,-104,632,-328,265.44,-1.37,1.9,-1.08,90.13,15.47,40.3,0,0,0,0,
-29,50,1364,-2,0,0,-104,632,-328,265.44,-1.37,1.9,-1.08,90.13,15.47,40.3,0,0,0,0,
-30,49,1364,-1,0,0,-104,632,-328,265.44,-1.37,1.9,-1.08,90.13,15.47,40.3,0,0,0,0,
-30,49,1364,-1,0,0,-104,632,-328,265.44,-1.37,1.9,-1.08,90.13,15.47,40.3,0,0,0,0,
-29,54,1364,-1,-1,1,-104,632,-328,265.44,-1.37,1.9,-1.08,90.13,15.47,40.3,0,0,0,0,
-29,54,1364,-1,-1,1,-100,629,-326,265.43,-1.37,1.9,-1.08,90.13,15.47,40.3,0,0,0,0,
-29,54,1364,-1,-1,1,-100,629,-326,265.43,-1.37,1.9,-1.08,90.13,15.47,40.3,0,0,0,0,
-29,54,1364,-1,-1,1,-100,629,-326,265.43,-1.37,1.9,-1.08,90.13,15.47,40.3,0,0,0,0,
-29,54,1364,-1,-1,1,-100,629,-326,265.43,-1.37,1.9,-1.08,90.13,15.47,40.3,0,0,0,0,
-29,54,1364,-1,-1,1,-100,629,-326,265.43,-1.37,1.9,-1.08,90.13,15.47,40.3,0,0,0,0,
-30,46,1365,-2,0,0,-100,629,-326,265.43,-1.37,1.9,-1.08,90.13,15.47,40.3,0,0,0,0,
-30,46,1365,-2,0,0,-100,629,-326,265.43,-1.37,1.9,-1.08,90.13,15.47,40.3,0,0,0,0,
-30,46,1365,-2,0,0,-100,629,-326,265.43,-1.37,1.9,-1.08,90.13,15.47,40.3,0,0,0,0,
-28,49,1365,0,-3,0,-100,629,-326,265.43,-1.37,1.9,-1.08,90.13,15.47,40.3,0,0,0,0,
-28,49,1365,0,-3,0,-99,631,-330,265.42,-1.37,1.9,-1.08,90.13,15.47,40.3,0,0,0,0,
-28,49,1365,0,-3,0,-99,631,-330,265.42,-1.37,1.9,-1.08,90.13,15.47,40.3,0,0,0,0,
-28,49,1365,0,-3,0,-99,631,-330,265.42,-1.37,1.9,-1.08,90.13,15.47,40.3,0,0,0,0,
-28,49,1365,0,-3,0,-99,631,-330,265.42,-1.37,1.9,-1.08,90.13,15.47,40.3,0,0,0,0,
-29,49,1367,0,1,-1,-99,631,-330,265.42,-1.37,1.9,-1.08,90.13,15.47,40.3,0,0,0,0,
-29,49,1367,0,1,-1,-99,631,-330,265.42,-1.37,1.9,-1.08,90.13,15.47,40.3,0,0,0,0,
-29,49,1367,0,1,-1,-99,631,-330,265.42,-1.37,1.9,-1.08,90.13,15.47,40.3,0,0,0,0,
-28,50,1362,1,1,0,-99,631,-330,265.42,-1.37,1.9,-1.08,90.13,15.47,40.3,0,0,0,0,
-28,50,1362,1,1,0,-99,631,-330,265.42,-1.37,1.9,-1.08,90.13,15.47,40.3,0,0,0,0,
-30,52,1364,3,-2,3,-99,631,-330,265.42,-1.37,1.9,-1.08,90.13,15.47,40.3,0,0,0,0,
-30,52,1364,3,-2,3,-104,631,-330,265.45,-1.37,1.9,-1.08,90.13,15.47,40.3,0,0,0,0,
-30,52,1364,3,-2,3,-104,631,-330,265.45,-1.37,1.9,-1.08,90.13,15.47,40.3,0,0,0,0,
-30,52,1364,3,-2,3,-104,631,-330,265.45,-1.37,1.9,-1.08,90.13,15.47,40.3,0,0,0,0,
-30,52,1364,3,-2,3,-104,631,-330,265.45,-1.37,1.9,-1.08,90.13,15.47,40.3,0,0,0,0,
-30,49,1365,-2,0,-1,-104,631,-330,265.45,-1.37,1.9,-1.08,90.13,15.47,40.3,0,0,0,0,
-30,49,1365,-2,0,-1,-104,631,-330,265.45,-1.37,1.9,-1.08,90.13,15.47,40.3,0,0,0,0,
-30,49,1365,-2,0,-1,-104,631,-330,265.45,-1.37,1.9,-1.08,90.13,15.47,40.3,0,0,0,0,
-25,53,1364,0,0,0,-104,631,-330,265.45,-1.37,1.9,-1.08,90.13,15.47,40.3,0,0,0,0,
-25,53,1364,0,0,0,-102,631,-324,265.42,-1.37,1.9,-1.08,90.13,15.47,40.3,0,0,0,0,
-25,53,1364,0,0,0,-102,631,-324,265.42,-1.37,1.9,-1.08,90.13,15.47,40.3,0,0,0,0,
-25,53,1364,0,0,0,-102,631,-324,265.42,-1.37,1.9,-1.08,90.13,15.47,40.3,0,0,0,0,
-25,53,1364,0,0,0,-102,631,-324,265.42,-1.37,1.9,-1.08,90.13,15.47,40.3,0,0,0,0,
-28,48,1360,0,0,0,-102,631,-324,265.42,-1.37,1.9,-1.08,90.13,15.47,40.3,0,0,0,0,
-28,48,1360,0,0,0,-102,631,-324,265.42,-1.37,1.9,-1.09,90.13,15.47,40.3,0,0,0,0,
-28,48,1360,0,0,0,-102,631,-324,265.42,-1.37,1.9,-1.09,90.13,15.47,40.3,0,0,0,0,
-27,53,1367,1,0,1,-102,631,-324,265.42,-1.37,1.9,-1.09,90.13,15.47,40.3,0,0,0,0,
-27,53,1367,1,0,1,-102,631,-324,265.42,-1.37,1.9,-1.09,90.13,15.47,40.3,0,0,0,0,
-30,52,1366,2,-1,1,-102,631,-324,265.42,-1.37,1.9,-1.09,90.13,15.47,40.3,0,0,0,0,
-30,52,1366,2,-1,1,-101,631,-324,265.43,-1.37,1.9,-1.09,90.13,15.47,40.3,0,0,0,0,
-30,52,1366,2,-1,1,-101,631,-324,265.43,-1.37,1.91,-1.09,90.13,15.47,40.3,0,0,0,0,
-30,52,1366,2,-1,1,-101,631,-324,265.43,-1.37,1.91,-1.09,90.13,15.47,40.3,0,0,0,0,
-30,52,1366,2,-1,1,-101,631,-324,265.43,-1.37,1.91,-1.09,90.13,15.47,40.3,0,0,0,0,
-25,49,1366,0,0,0,-101,631,-324,265.43,-1.37,1.91,-1.09,90.13,15.47,40.3,0,0,0,0,
-25,49,1366,0,0,0,-101,631,-324,265.43,-1.37,1.91,-1.09,90.13,15.47,40.3,0,0,0,0,
-25,49,1366,0,0,0,-101,631,-324,265.43,-1.37,1.91,-1.09,90.13,15.47,40.3,0,0,0,0,
-31,49,1362,-2,0,3,-101,631,-324,265.43,-1.37,1.91,-1.09,90.13,15.47,40.3,0,0,0,0,
-31,49,1362,-2,0,3,-100,631,-336,265.43,-1.37,1.91,-1.09,90.13,15.47,40.3,0,0,0,0,
-31,49,1362,-2,0,3,-100,631,-336,265.43,-1.37,1.9,-1.09,90.13,15.47,40.3,0,0,0,0,
-31,49,1362,-2,0,3,-100,631,-336,265.43,-1.37,1.9,-1.09,90.13,15.47,40.3,0,0,0,0,
-31,49,1362,-2,0,3,-100,631,-336,265.43,-1.37,1.9,-1.09,90.13,15.47,40.3,0,0,0,0,
-29,48,1367,-1,1,0,-100,631,-336,265.43,-1.37,1.9,-1.09,90.13,15.47,40.3,0,0,0,0,
-29,48,1367,-1,1,0,-100,631,-336,265.43,-1.37,1.9,-1.09,90.13,15.47,40.3,0,0,0,0,
-29,48,1367,-1,1,0,-100,631,-336,265.43,-1.37,1.9,-1.09,90.13,15.47,40.3,0,0,0,0,
-28,51,1363,-3,1,0,-100,631,-336,265.43,-1.37,1.9,-1.09,90.13,15.47,40.3,0,0,0,0,
-28,51,1363,-3,1,0,-100,631,-336,265.43,-1.37,1.9,-1.09,90.13,15.47,40.3,0,0,0,0,
-28,53,1366,-4,-2,0,-100,631,-336,265.43,-1.37,1.9,-1.09,90.13,15.47,40.3,0,0,0,0,
-28,53,1366,-4,-2,0,-108,632,-319,265.44,-1.37,1.9,-1.09,90.13,15.47,40.3,0,0,0,0,
-28,53,1366,-4,-2,0,-108,632,-319,265.44,-1.37,1.9,-1.09,90.13,15.47,40.3,0,0,0,0,
-28,53,1366,-4,-2,0,-108,632,-319,265.44,-1.37,1.9,-1.09,90.13,15.47,40.3,0,0,0,0,
-28,53,1366,-4,-2,0,-108,632,-319,265.44,-1.37,1.9,-1.09,90.13,15.47,40.3,0,0,0,0,
-28,53,1366,-4,-2,0,-108,632,-319,265.44,-1.37,1.9,-1.09,90.13,15.47,40.3,0,0,0,0,
-29,48,1366,1,0,2,-108,632,-319,265.44,-1.37,1.9,-1.09,90.13,15.47,40.3,0,0,0,0,
-29,48,1366,1,0,2,-108,632,-319,265.44,-1.37,1.91,-1.08,90.13,15.47,40.3,0,0,0,0,
-29,48,1366,1,0,2,-108,632,-319,265.44,-1.37,1.91,-1.08,90.13,15.47,40.3,0,0,0,0,
-31,52,1365,0,1,2,-108,632,-319,265.44,-1.37,1.91,-1.08,90.13,15.47,40.3,0,0,0,0,
-31,52,1365,0,1,2,-104,635,-326,265.43,-1.37,1.91,-1.08,90.13,15.47,40.3,0,0,0,0,
-31,52,1365,0,1,2,-104,635,-326,265.43,-1.37,1.91,-1.09,90.13,15.47,40.3,0,0,0,0,
-31,52,1365,0,1,2,-104,635,-326,265.43,-1.37,1.91,-1.09,90.13,15.47,40.3,0,0,0,0,
-31,52,1365,0,1,2,-104,635,-326,265.43,-1.37,1.91,-1.09,90.13,15.47,40.3,0,0,0,0,
-27,49,1365,-2,0,0,-104,635,-326,265.43,-1.37,1.91,-1.09,90.13,15.47,40.3,0,0,0,0,
-27,49,1365,-2,0,0,-104,635,-326,265.43,-1.37,1.91,-1.09,90.12,15.47,40.3,0,0,0,0,
-27,49,1365,-2,0,0,-104,635,-326,265.43,-1.37,1.91,-1.09,90.12,15.47,40.3,0,0,0,0,
-29,47,1365,-2,0,-2,-104,635,-326,265.43,-1.37,1.91,-1.09,90.12,15.47,40.3,0,0,0,0,
-29,47,1365,-2,0,-2,-104,635,-326,265.43,-1.37,1.91,-1.09,90.12,15.47,40.3,0,0,0,0,
-27,50,1367,-1,2,-1,-104,635,-326,265.43,-1.37,1.91,-1.09,90.12,15.47,40.3,0,0,0,0,
-27,50,1367,-1,2,-1,-113,638,-335,265.43,-1.37,1.91,-1.09,90.12,15.47,40.3,0,0,0,0,
-27,50,1367,-1,2,-1,-113,638,-335,265.43,-1.37,1.91,-1.09,90.12,15.47,40.3,0,0,0,0,
-27,50,1367,-1,2,-1,-113,638,-335,265.43,-1.37,1.91,-1.09,90.12,15.47,40.3,0,0,0,0,
-27,50,1367,-1,2,-1,-113,638,-335,265.43,-1.37,1.91,-1.09,90.12,15.47,40.3,0,0,0,0,
-27,49,1362,-4,0,-2,-113,638,-335,265.43,-1.37,1.91,-1.09,90.12,15.47,40.3,0,0,0,0,
-27,49,1362,-4,0,-2,-113,638,-335,265.43,-1.37,1.91,-1.09,90.13,15.47,40.3,0,0,0,0,
-27,49,1362,-4,0,-2,-113,638,-335,265.43,-1.37,1.91,-1.09,90.13,15.47,40.3,0,0,0,0,
-29,52,1365,-2,1,1,-113,638,-335,265.43,-1.37,1.91,-1.09,90.13,15.47,40.3,0,0,0,0,
-29,52,1365,-2,1,1,-111,642,-329,265.44,-1.37,1.91,-1.09,90.13,15.47,40.3,0,0,0,0,
-29,52,1365,-2,1,1,-111,642,-329,265.44,-1.37,1.91,-1.09,90.12,15.47,40.3,0,0,0,0,
-29,52,1365,-2,1,1,-111,642,-329,265.44,-1.37,1.91,-1.09,90.12,15.47,40.3,0,0,0,0,
-29,52,1365,-2,1,1,-111,642,-329,265.44,-1.37,1.91,-1.09,90.12,15.47,40.3,0,0,0,0,
-31,51,1365,-2,0,1,-111,642,-329,265.44,-1.37,1.91,-1.09,90.12,15.47,40.3,0,0,0,0,
-31,51,1365,-2,0,1,-111,642,-329,265.44,-1.37,1.91,-1.09,90.12,15.47,40.3,0,0,0,0,
-31,51,1365,-2,0,1,-111,642,-329,265.44,-1.37,1.91,-1.09,90.12,15.47,40.3,0,0,0,0,
-30,48,1365,-1,0,-2,-111,642,-329,265.44,-1.37,1.91,-1.09,90.12,15.47,40.3,0,0,0,0,
-30,48,1365,-1,0,-2,-111,642,-329,265.44,-1.37,1.91,-1.09,90.12,15.47,40.3,0,0,0,0,
-28,52,1364,-3,0,0,-111,642,-329,265.44,-1.37,1.91,-1.09,90.12,15.47,40.3,0,0,0,0,
-28,52,1364,-3,0,0,-112,637,-329,265.44,-1.37,1.91,-1.09,90.12,15.47,40.3,0,0,0,0,
-28,52,1364,-3,0,0,-112,637,-329,265.44,-1.37,1.91,-1.09,90.12,15.47,40.3,0,0,0,0,
-28,52,1364,-3,0,0,-112,637,-329,265.44,-1.37,1.91,-1.09,90.12,15.47,40.3,0,0,0,0,
-28,52,1364,-3,0,0,-112,637,-329,265.44,-1.37,1.91,-1.09,90.12,15.47,40.3,0,0,0,0,
-29,51,1366,-2,0,-2,-112,637,-329,265.44,-1.37,1.91,-1.09,90.12,15.47,40.3,0,0,0,0,
-29,51,1366,-2,0,-2,-112,637,-329,265.44,-1.37,1.91,-1.09,90.13,15.47,40.3,0,0,0,0,
-29,51,1366,-2,0,-2,-112,637,-329,265.44,-1.37,1.91,-1.09,90.13,15.47,40.3,0,0,0,0,
-33,49,1365,-1,0,0,-112,637,-329,265.44,-1.37,1.91,-1.09,90.13,15.47,40.3,0,0,0,0,
-33,49,1365,-1,0,0,-101,632,-334,265.41,-1.37,1.91,-1.09,90.13,15.47,40.3,0,0,0,0,
-33,49,1365,-1,0,0,-101,632,-334,265.41,-1.37,1.91,-1.09,90.13,15.47,40.3,0,0,0,0,
-33,49,1365,-1,0,0,-101,632,-334,265.41,-1.37,1.91,-1.09,90.13,15.47,40.3,0,0,0,0,
-33,49,1365,-1,0,0,-101,632,-334,265.41,-1.37,1.91,-1.09,90.13,15.47,40.3,0,0,0,0,
-28,53,1367,-2,1,1,-101,632,-334,265.41,-1.37,1.91,-1.09,90.13,15.47,40.3,0,0,0,0,
-28,53,1367,-2,1,1,-101,632,-334,265.41,-1.37,1.91,-1.09,90.13,15.47,40.3,0,0,0,0,
-28,53,1367,-2,1,1,-101,632,-334,265.41,-1.37,1.91,-1.09,90.13,15.47,40.3,0,0,0,0,
-27,54,1362,0,-1,-2,-101,632,-334,265.41,-1.37,1.91,-1.09,90.13,15.47,40.3,0,0,0,0,
-27,54,1362,0,-1,-2,-101,632,-334,265.41,-1.37,1.91,-1.09,90.13,15.47,40.3,0,0,0,0,
-29,51,1366,0,0,-2,-101,632,-334,265.41,-1.37,1.91,-1.09,90.13,15.47,40.3,0,0,0,0,
-29,51,1366,0,0,-2,-105,631,-327,265.4,-1.37,1.91,-1.09,90.13,15.47,40.3,0,0,0,0,
-29,51,1366,0,0,-2,-105,631,-327,265.4,-1.37,1.91,-1.09,90.13,15.47,40.3,0,0,0,0,
-29,51,1366,0,0,-2,-105,631,-327,265.4,-1.37,1.91,-1.09,90.13,15.47,40.3,0,0,0,0,
-29,51,1366,0,0,-2,-105,631,-327,265.4,-1.37,1.91,-1.09,90.13,15.47,40.3,0,0,0,0,
-29,51,1366,0,0,-2,-105,631,-327,265.4,-1.37,1.91,-1.09,90.13,15.47,40.3,0,0,0,0,
-31,49,1364,-3,-2,0,-105,631,-327,265.4,-1.37,1.91,-1.09,90.13,15.47,40.3,0,0,0,0,
-31,49,1364,-3,-2,0,-105,631,-327,265.4,-1.37,1.91,-1.09,90.13,15.47,40.3,0,0,0,0,
-31,49,1364,-3,-2,0,-105,631,-327,265.4,-1.37,1.91,-1.09,90.13,15.47,40.3,0,0,0,0,
-27,49,1364,2,4,0,-105,631,-327,265.4,-1.37,1.91,-1.09,90.13,15.47,40.3,0,0,0,0,
-27,49,1364,2,4,0,-114,639,-332,265.38,-1.37,1.91,-1.09,90.13,15.47,40.3,0,0,0,0,
-27,49,1364,2,4,0,-114,639,-332,265.38,-1.37,1.91,-1.09,90.13,15.47,40.3,0,0,0,0,
-27,49,1364,2,4,0,-114,639,-332,265.38,-1.37,1.91,-1.09,90.13,15.47,40.3,0,0,0,0,
-27,49,1364,2,4,0,-114,639,-332,265.38,-1.37,1.91,-1.09,90.13,15.47,40.3,0,0,0,0,
-30,48,1365,1,-1,1,-114,639,-332,265.38,-1.37,1.91,-1.09,90.13,15.47,40.3,0,0,0,0,
-30,48,1365,1,-1,1,-114,639,-332,265.38,-1.37,1.91,-1.09,90.13,15.47,40.3,0,0,0,0,
-30,48,1365,1,-1,1,-114,639,-332,265.38,-1.37,1.91,-1.09,90.13,15.47,40.3,0,0,0,0,
-28,52,1366,-1,0,2,-114,639,-332,265.38,-1.37,1.91,-1.09,90.13,15.47,40.3,0,0,0,0,
-28,52,1366,-1,0,2,-114,639,-332,265.38,-1.37,1.91,-1.09,90.13,15.47,40.3,0,0,0,0,
-29,47,1368,-6,-1,3,-114,639,-332,265.38,-1.37,1.91,-1.09,90.13,15.47,40.3,0,0,0,0,
-29,47,1368,-6,-1,3,-113,640,-336,265.4,-1.37,1.91,-1.09,90.13,15.47,40.3,0,0,0,0,
-29,47,1368,-6,-1,3,-113,640,-336,265.4,-1.37,1.92,-1.09,90.12,15.47,40.3,0,0,0,0,
-29,47,1368,-6,-1,3,-113,640,-336,265.4,-1.37,1.92,-1.09,90.12,15.47,40.3,0,0,0,0,
-29,47,1368,-6,-1,3,-113,640,-336,265.4,-1.37,1.92,-1.09,90.12,15.47,40.3,0,0,0,0,
-30,53,1365,-4,-3,-1,-113,640,-336,265.4,-1.37,1.92,-1.09,90.12,15.47,40.3,0,0,0,0,
-30,53,1365,-4,-3,-1,-113,640,-336,265.4,-1.37,1.91,-1.09,90.12,15.47,40.3,0,0,0,0,
-30,53,1365,-4,-3,-1,-113,640,-336,265.4,-1.37,1.91,-1.09,90.12,15.47,40.3,0,0,0,0,
-28,52,1363,-2,1,0,-113,640,-336,265.4,-1.37,1.91,-1.09,90.12,15.47,40.3,0,0,0,0,
-28,52,1363,-2,1,0,-116,640,-337,265.42,-1.37,1.91,-1.09,90.12,15.47,40.3,0,0,0,0,
-28,52,1363,-2,1,0,-116,640,-337,265.42,-1.37,1.91,-1.09,90.12,15.47,40.3,0,0,0,0,
-28,52,1363,-2,1,0,-116,640,-337,265.42,-1.37,1.91,-1.09,90.12,15.47,40.3,0,0,0,0,
-28,52,1363,-2,1,0,-116,640,-337,265.42,-1.37,1.91,-1.09,90.12,15.47,40.3,0,0,0,0,
-27,50,1367,3,0,1,-116,640,-337,265.42,-1.37,1.91,-1.09,90.12,15.47,40.3,0,0,0,0,
-27,50,1367,3,0,1,-116,640,-337,265.42,-1.37,1.92,-1.09,90.12,15.47,40.3,0,0,0,0,
-27,50,1367,3,0,1,-116,640,-337,265.42,-1.37,1.92,-1.09,90.12,15.47,40.3,0,0,0,0,
-29,53,1365,0,0,-1,-116,640,-337,265.42,-1.37,1.92,-1.09,90.12,15.47,40.3,0,0,0,0,
-29,53,1365,0,0,-1,-116,640,-337,265.42,-1.37,1.92,-1.09,90.12,15.47,40.3,0,0,0,0,
-31,54,1362,-3,0,1,-116,640,-337,265.42,-1.37,1.92,-1.09,90.12,15.47,40.3,0,0,0,0,
-31,54,1362,-3,0,1,-116,640,-341,265.42,-1.37,1.92,-1.09,90.12,15.47,40.3,0,0,0,0,
-31,54,1362,-3,0,1,-116,640,-341,265.42,-1.37,1.92,-1.09,90.12,15.47,40.3,0,0,0,0,
-31,54,1362,-3,0,1,-116,640,-341,265.42,-1.37,1.92,-1.09,90.12,15.47,40.3,0,0,0,0,
-31,54,1362,-3,0,1,-116,640,-341,265.42,-1.37,1.92,-1.09,90.12,15.47,40.3,0,0,0,0,
-26,49,1364,1,0,-1,-116,640,-341,265.42,-1.37,1.92,-1.09,90.12,15.47,40.3,0,0,0,0,
-26,49,1364,1,0,-1,-116,640,-341,265.42,-1.37,1.92,-1.1,90.12,15.47,40.3,0,0,0,0,
-26,49,1364,1,0,-1,-116,640,-341,265.42,-1.37,1.92,-1.1,90.12,15.47,40.3,0,0,0,0,
-29,51,1364,-2,-2,-1,-116,640,-341,265.42,-1.37,1.92,-1.1,90.12,15.47,40.3,0,0,0,0,
-29,51,1364,-2,-2,-1,-101,628,-331,265.43,-1.37,1.92,-1.1,90.12,15.47,40.3,0,0,0,0,
-29,51,1364,-2,-2,-1,-101,628,-331,265.43,-1.37,1.92,-1.1,90.13,15.47,40.3,0,0,0,0,
-29,51,1364,-2,-2,-1,-101,628,-331,265.43,-1.37,1.92,-1.1,90.13,15.47,40.3,0,0,0,0,
-29,51,1364,-2,-2,-1,-101,628,-331,265.43,-1.37,1.92,-1.1,90.13,15.47,40.3,0,0,0,0,
-26,51,1361,0,0,0,-101,628,-331,265.43,-1.37,1.92,-1.1,90.13,15.47,40.3,0,0,0,0,
-26,51,1361,0,0,0,-101,628,-331,265.43,-1.37,1.92,-1.1,90.13,15.47,40.3,0,0,0,0,
-26,51,1361,0,0,0,-101,628,-331,265.43,-1.37,1.92,-1.1,90.13,15.47,40.3,0,0,0,0,
-27,52,1365,-1,0,0,-101,628,-331,265.43,-1.37,1.92,-1.1,90.13,15.47,40.3,0,0,0,0,
-27,52,1365,-1,0,0,-101,628,-331,265.43,-1.37,1.92,-1.1,90.13,15.47,40.3,0,0,0,0,
-28,53,1364,-1,-1,2,-101,628,-331,265.43,-1.37,1.92,-1.1,90.13,15.47,40.3,0,0,0,0,
-28,53,1364,-1,-1,2,-107,631,-336,265.44,-1.37,1.92,-1.1,90.13,15.47,40.3,0,0,0,0,
-28,53,1364,-1,-1,2,-107,631,-336,265.44,-1.37,1.92,-1.1,90.13,15.47,40.3,0,0,0,0,
-28,53,1364,-1,-1,2,-107,631,-336,265.44,-1.37,1.92,-1.1,90.13,15.47,40.3,0,0,0,0,
-28,53,1364,-1,-1,2,-107,631,-336,265.44,-1.37,1.92,-1.1,90.13,15.47,40.3,0,0,0,0,
-28,53,1364,-1,-1,2,-107,631,-336,265.44,-1.37,1.92,-1.1,90.13,15.47,40.3,0,0,0,0,
-26,48,1368,-3,0,0,-107,631,-336,265.44,-1.37,1.92,-1.1,90.13,15.47,40.3,0,0,0,0,
-26,48,1368,-3,0,0,-107,631,-336,265.44,-1.37,1.92,-1.1,90.13,15.47,40.3,0,0,0,0,
-26,48,1368,-3,0,0,-107,631,-336,265.44,-1.37,1.92,-1.1,90.13,15.47,40.3,0,0,0,0,
-29,50,1361,-3,1,0,-107,631,-336,265.44,-1.37,1.92,-1.1,90.13,15.47,40.3,0,0,0,0,
-29,50,1361,-3,1,0,-126,657,-339,265.47,-1.37,1.92,-1.1,90.13,15.47,40.3,0,0,0,0,
-29,50,1361,-3,1,0,-126,657,-339,265.47,-1.37,1.92,-1.1,90.13,15.47,40.3,0,0,0,0,
-29,50,1361,-3,1,0,-126,657,-339,265.47,-1.37,1.92,-1.1,90.13,15.47,40.3,0,0,0,0,
-29,50,1361,-3,1,0,-126,657,-339,265.47,-1.37,1.92,-1.1,90.13,15.47,40.3,0,0,0,0,
-28,49,1364,-2,1,1,-126,657,-339,265.47,-1.37,1.92,-1.1,90.13,15.47,40.3,0,0,0,0,
-28,49,1364,-2,1,1,-126,657,-339,265.47,-1.37,1.91,-1.1,90.13,15.47,40.3,0,0,0,0,
-28,49,1364,-2,1,1,-126,657,-339,265.47,-1.37,1.91,-1.1,90.13,15.47,40.3,0,0,0,0,
-28,51,1365,0,-1,-4,-126,657,-339,265.47,-1.37,1.91,-1.1,90.13,15.47,40.3,0,0,0,0,
-28,51,1365,0,-1,-4,-126,657,-339,265.47,-1.37,1.91,-1.1,90.13,15.47,40.3,0,0,0,0,
-27,52,1367,2,0,0,-126,657,-339,265.47,-1.37,1.91,-1.1,90.13,15.47,40.3,0,0,0,0,
-27,52,1367,2,0,0,-126,657,-340,265.42,-1.37,1.91,-1.1,90.13,15.47,40.3,0,0,0,0,
-27,52,1367,2,0,0,-126,657,-340,265.42,-1.37,1.92,-1.1,90.13,15.47,40.3,0,0,0,0,
-27,52,1367,2,0,0,-126,657,-340,265.42,-1.37,1.92,-1.1,90.13,15.47,40.3,0,0,0,0,
-27,52,1367,2,0,0,-126,657,-340,265.42,-1.37,1.92,-1.1,90.13,15.47,40.3,0,0,0,0,
-30,50,1365,-1,0,2,-126,657,-340,265.42,-1.37,1.92,-1.1,90.13,15.47,40.3,0,0,0,0,
-30,50,1365,-1,0,2,-126,657,-340,265.42,-1.37,1.92,-1.1,90.13,15.47,40.3,0,0,0,0,
-30,50,1365,-1,0,2,-126,657,-340,265.42,-1.37,1.92,-1.1,90.13,15.47,40.3,0,0,0,0,
-26,52,1364,0,0,-1,-126,657,-340,265.42,-1.37,1.92,-1.1,90.13,15.47,40.3,0,0,0,0,
-26,52,1364,0,0,-1,-127,660,-343,265.42,-1.37,1.92,-1.1,90.13,15.47,40.3,0,0,0,0,
-26,52,1364,0,0,-1,-127,660,-343,265.42,-1.37,1.92,-1.1,90.13,15.47,40.3,0,0,0,0,
-26,52,1364,0,0,-1,-127,660,-343,265.42,-1.37,1.92,-1.1,90.13,15.47,40.3,0,0,0,0,
-26,52,1364,0,0,-1,-127,660,-343,265.42,-1.37,1.92,-1.1,90.13,15.47,40.3,0,0,0,0,
-29,53,1363,-2,0,-2,-127,660,-343,265.42,-1.37,1.92,-1.1,90.13,15.47,40.3,0,0,0,0,
-29,53,1363,-2,0,-2,-127,660,-343,265.42,-1.37,1.92,-1.1,90.13,15.47,40.3,0,0,0,0,
-29,53,1363,-2,0,-2,-127,660,-343,265.42,-1.37,1.92,-1.1,90.13,15.47,40.3,0,0,0,0,
-28,48,1364,-1,1,1,-127,660,-343,265.42,-1.37,1.92,-1.1,90.13,15.47,40.3,0,0,0,0,
-28,48,1364,-1,1,1,-127,660,-343,265.42,-1.37,1.92,-1.1,90.13,15.47,40.3,0,0,0,0,
-25,50,1366,-9,0,-1,-127,660,-343,265.42,-1.37,1.92,-1.1,90.13,15.47,40.3,0,0,0,0,
-25,50,1366,-9,0,-1,-126,654,-325,265.43,-1.37,1.92,-1.1,90.13,15.47,40.3,0,0,0,0,
-25,50,1366,-9,0,-1,-126,654,-325,265.43,-1.37,1.92,-1.1,90.13,15.47,40.3,0,0,0,0,
-25,50,1366,-9,0,-1,-126,654,-325,265.43,-1.37,1.92,-1.1,90.13,15.47,40.3,0,0,0,0,
-25,50,1366,-9,0,-1,-126,654,-325,265.43,-1.37,1.92,-1.1,90.13,15.47,40.3,0,0,0,0,
-28,53,1364,0,0,1,-126,654,-325,265.43,-1.37,1.92,-1.1,90.13,15.47,40.3,0,0,0,0,
-28,53,1364,0,0,1,-126,654,-325,265.43,-1.37,1.92,-1.1,90.13,15.47,40.3,0,0,0,0,
-28,53,1364,0,0,1,-126,654,-325,265.43,-1.37,1.92,-1.1,90.13,15.47,40.3,0,0,0,0,
-29,48,1363,-1,0,0,-126,654,-325,265.43,-1.37,1.92,-1.1,90.13,15.47,40.3,0,0,0,0,
-29,48,1363,-1,0,0,-105,635,-325,265.42,-1.37,1.92,-1.1,90.13,15.47,40.3,0,0,0,0,
-29,48,1363,-1,0,0,-105,635,-325,265.42,-1.37,1.92,-1.1,90.13,15.47,40.3,0,0,0,0,
-29,48,1363,-1,0,0,-105,635,-325,265.42,-1.37,1.92,-1.1,90.13,15.47,40.3,0,0,0,0,
-29,48,1363,-1,0,0,-105,635,-325,265.42,-1.37,1.92,-1.1,90.13,15.47,40.3,0,0,0,0,
-28,48,1365,-5,2,2,-105,635,-325,265.42,-1.37,1.92,-1.1,90.13,15.47,40.3,0,0,0,0,
-28,48,1365,-5,2,2,-105,635,-325,265.42,-1.37,1.92,-1.1,90.12,15.47,40.3,0,0,0,0,
-28,48,1365,-5,2,2,-105,635,-325,265.42,-1.37,1.92,-1.1,90.12,15.47,40.3,0,0,0,0,
-26,51,1367,0,1,0,-105,635,-325,265.42,-1.37,1.92,-1.1,90.12,15.47,40.3,0,0,0,0,
-26,51,1367,0,1,0,-105,635,-325,265.42,-1.37,1.92,-1.1,90.12,15.47,40.3,0,0,0,0,
-29,52,1362,1,-3,-1,-105,635,-325,265.42,-1.37,1.92,-1.1,90.12,15.47,40.3,0,0,0,0,
-29,52,1362,1,-3,-1,-101,632,-327,265.41,-1.37,1.92,-1.1,90.12,15.47,40.3,0,0,0,0,
-29,52,1362,1,-3,-1,-101,632,-327,265.41,-1.37,1.92,-1.1,90.12,15.47,40.3,0,0,0,0,
-29,52,1362,1,-3,-1,-101,632,-327,265.41,-1.37,1.92,-1.1,90.12,15.47,40.3,0,0,0,0,
-29,52,1362,1,-3,-1,-101,632,-327,265.41,-1.37,1.92,-1.1,90.12,15.47,40.3,0,0,0,0,
-29,52,1362,1,-3,-1,-101,632,-327,265.41,-1.37,1.92,-1.1,90.12,15.47,40.3,0,0,0,0,
-27,48,1364,-3,0,1,-101,632,-327,265.41,-1.37,1.92,-1.1,90.12,15.47,40.3,0,0,0,0,
-27,48,1364,-3,0,1,-101,632,-327,265.41,-1.37,1.92,-1.1,90.12,15.47,40.3,0,0,0,0,
-27,48,1364,-3,0,1,-101,632,-327,265.41,-1.37,1.92,-1.1,90.12,15.47,40.3,0,0,0,0,
-26,49,1365,0,1,0,-101,632,-327,265.41,-1.37,1.92,-1.1,90.12,15.47,40.3,0,0,0,0,
-26,49,1365,0,1,0,-103,629,-329,265.44,-1.37,1.92,-1.1,90.12,15.47,40.3,0,0,0,0,
-26,49,1365,0,1,0,-103,629,-329,265.44,-1.37,1.92,-1.1,90.13,15.47,40.3,0,0,0,0,
-26,49,1365,0,1,0,-103,629,-329,265.44,-1.37,1.92,-1.1,90.13,15.47,40.3,0,0,0,0,
-26,49,1365,0,1,0,-103,629,-329,265.44,-1.37,1.92,-1.1,90.13,15.47,40.3,0,0,0,0,
-28,49,1363,0,0,0,-103,629,-329,265.44,-1.37,1.92,-1.1,90.13,15.47,40.3,0,0,0,0,
-28,49,1363,0,0,0,-103,629,-329,265.44,-1.37,1.92,-1.1,90.12,15.47,40.3,0,0,0,0,
-28,49,1363,0,0,0,-103,629,-329,265.44,-1.37,1.92,-1.1,90.12,15.47,40.3,0,0,0,0,
-31,50,1363,-3,-2,-2,-103,629,-329,265.44,-1.37,1.92,-1.1,90.12,15.47,40.3,0,0,0,0,
-31,50,1363,-3,-2,-2,-103,629,-329,265.44,-1.37,1.92,-1.1,90.12,15.47,40.3,0,0,0,0,
-27,48,1366,-4,1,0,-103,629,-329,265.44,-1.37,1.92,-1.1,90.12,15.47,40.3,0,0,0,0,
-27,48,1366,-4,1,0,-107,632,-332,265.45,-1.37,1.92,-1.1,90.12,15.47,40.3,0,0,0,0,
-27,48,1366,-4,1,0,-107,632,-332,265.45,-1.37,1.92,-1.1,90.13,15.47,40.3,0,0,0,0,
-27,48,1366,-4,1,0,-107,632,-332,265.45,-1.37,1.92,-1.1,90.13,15.47,40.3,0,0,0,0,
-27,48,1366,-4,1,0,-107,632,-332,265.45,-1.37,1.92,-1.1,90.13,15.47,40.3,0,0,0,0,
-27,50,1367,-2,2,1,-107,632,-332,265.45,-1.37,1.92,-1.1,90.13,15.47,40.3,0,0,0,0,
-27,50,1367,-2,2,1,-107,632,-332,265.45,-1.37,1.92,-1.1,90.12,15.47,40.3,0,0,0,0,
-27,50,1367,-2,2,1,-107,632,-332,265.45,-1.37,1.92,-1.1,90.12,15.47,40.3,0,0,0,0,
-28,51,1364,-5,1,0,-107,632,-332,265.45,-1.37,1.92,-1.1,90.12,15.47,40.3,0,0,0,0,
-28,51,1364,-5,1,0,-102,626,-346,265.44,-1.37,1.92,-1.1,90.12,15.47,40.3,0,0,0,0,
-28,51,1364,-5,1,0,-102,626,-346,265.44,-1.37,1.92,-1.1,90.12,15.47,40.3,0,0,0,0,
-28,51,1364,-5,1,0,-102,626,-346,265.44,-1.37,1.92,-1.1,90.12,15.47,40.3,0,0,0,0,
-28,51,1364,-5,1,0,-102,626,-346,265.44,-1.37,1.92,-1.1,90.12,15.47,40.3,0,0,0,0,
-29,46,1367,1,0,0,-102,626,-346,265.44,-1.37,1.92,-1.1,90.12,15.47,40.3,0,0,0,0,
-29,46,1367,1,0,0,-102,626,-346,265.44,-1.37,1.92,-1.1,90.12,15.47,40.3,0,0,0,0,
-29,46,1367,1,0,0,-102,626,-346,265.44,-1.37,1.92,-1.1,90.12,15.47,40.3,0,0,0,0,
-26,51,1366,-2,0,0,-102,626,-346,265.44,-1.37,1.92,-1.1,90.12,15.47,40.3,0,0,0,0,
-26,51,1366,-2,0,0,-102,626,-346,265.44,-1.37,1.92,-1.1,90.12,15.47,40.3,0,0,0,0,
-27,50,1365,-1,-1,-1,-102,626,-346,265.44,-1.37,1.92,-1.1,90.12,15.47,40.3,0,0,0,0,
-27,50,1365,-1,-1,-1,-102,626,-334,265.47,-1.37,1.92,-1.1,90.12,15.47,40.3,0,0,0,0,
-27,50,1365,-1,-1,-1,-102,626,-334,265.47,-1.37,1.92,-1.1,90.13,15.47,40.3,0,0,0,0,
-27,50,1365,-1,-1,-1,-102,626,-334,265.47,-1.37,1.92,-1.1,90.13,15.47,40.3,0,0,0,0,
-27,50,1365,-1,-1,-1,-102,626,-334,265.47,-1.37,1.92,-1.1,90.13,15.47,40.3,0,0,0,0,
-28,54,1364,3,0,0,-102,626,-334,265.47,-1.37,1.92,-1.1,90.13,15.47,40.3,0,0,0,0,
-28,54,1364,3,0,0,-102,626,-334,265.47,-1.37,1.92,-1.1,90.13,15.47,40.3,0,0,0,0,
-28,54,1364,3,0,0,-102,626,-334,265.47,-1.37,1.92,-1.1,90.13,15.47,40.3,0,0,0,0,
-29,51,1362,0,2,0,-102,626,-334,265.47,-1.37,1.92,-1.1,90.13,15.47,40.3,0,0,0,0,
-29,51,1362,0,2,0,-103,626,-335,265.41,-1.37,1.92,-1.1,90.13,15.47,40.3,0,0,0,0,
-29,51,1362,0,2,0,-103,626,-335,265.41,-1.37,1.92,-1.1,90.12,15.47,40.3,0,0,0,0,
-29,51,1362,0,2,0,-103,626,-335,265.41,-1.37,1.92,-1.1,90.12,15.47,40.3,0,0,0,0,
-29,51,1362,0,2,0,-103,626,-335,265.41,-1.37,1.92,-1.1,90.12,15.47,40.3,0,0,0,0,
-28,49,1366,0,1,1,-103,626,-335,265.41,-1.37,1.92,-1.1,90.12,15.47,40.3,0,0,0,0,
-28,49,1366,0,1,1,-103,626,-335,265.41,-1.37,1.92,-1.1,90.12,15.47,40.3,0,0,0,0,
-28,49,1366,0,1,1,-103,626,-335,265.41,-1.37,1.92,-1.1,90.12,15.47,40.3,0,0,0,0,
-28,49,1365,-4,0,0,-103,626,-335,265.41,-1.37,1.92,-1.1,90.12,15.47,40.3,0,0,0,0,
-28,49,1365,-4,0,0,-103,626,-335,265.41,-1.37,1.92,-1.1,90.12,15.47,40.3,0,0,0,0,
-26,50,1363,-2,-2,-3,-103,626,-335,265.41,-1.37,1.92,-1.1,90.12,15.47,40.3,0,0,0,0,
-26,50,1363,-2,-2,-3,-103,629,-337,265.41,-1.37,1.92,-1.1,90.12,15.47,40.3,0,0,0,0,
-26,50,1363,-2,-2,-3,-103,629,-337,265.41,-1.37,1.92,-1.1,90.13,15.47,40.3,0,0,0,0,
-26,50,1363,-2,-2,-3,-103,629,-337,265.41,-1.37,1.92,-1.1,90.13,15.47,40.3,0,0,0,0,
-26,50,1363,-2,-2,-3,-103,629,-337,265.41,-1.37,1.92,-1.1,90.13,15.47,40.3,0,0,0,0,
-26,50,1363,-2,-2,-3,-103,629,-337,265.41,-1.37,1.92,-1.1,90.13,15.47,40.3,0,0,0,0,
-31,51,1364,-1,-1,-2,-103,629,-337,265.41,-1.37,1.92,-1.1,90.13,15.47,40.3,0,0,0,0,
-31,51,1364,-1,-1,-2,-103,629,-337,265.41,-1.37,1.92,-1.1,90.13,15.47,40.3,0,0,0,0,
-31,51,1364,-1,-1,-2,-103,629,-337,265.41,-1.37,1.92,-1.1,90.13,15.47,40.3,0,0,0,0,
-28,51,1363,-3,0,-1,-103,629,-337,265.41,-1.37,1.92,-1.1,90.13,15.47,40.3,0,0,0,0,
-28,51,1363,-3,0,-1,-104,630,-327,265.44,-1.37,1.92,-1.1,90.13,15.47,40.3,0,0,0,0,
-28,51,1363,-3,0,-1,-104,630,-327,265.44,-1.37,1.92,-1.1,90.13,15.47,40.3,0,0,0,0,
-28,51,1363,-3,0,-1,-104,630,-327,265.44,-1.37,1.92,-1.1,90.13,15.47,40.3,0,0,0,0,
-28,51,1363,-3,0,-1,-104,630,-327,265.44,-1.37,1.92,-1.1,90.13,15.47,40.3,0,0,0,0,
-27,52,1366,0,-3,-1,-104,630,-327,265.44,-1.37,1.92,-1.1,90.13,15.47,40.3,0,0,0,0,
-27,52,1366,0,-3,-1,-104,630,-327,265.44,-1.37,1.92,-1.1,90.13,15.47,40.3,0,0,0,0,
-27,52,1366,0,-3,-1,-104,630,-327,265.44,-1.37,1.92,-1.1,90.13,15.47,40.3,0,0,0,0,
-29,51,1365,-1,0,1,-104,630,-327,265.44,-1.37,1.92,-1.1,90.13,15.47,40.3,0,0,0,0,
-29,51,1365,-1,0,1,-104,630,-327,265.44,-1.37,1.92,-1.1,90.13,15.47,40.3,0,0,0,0,
-27,49,1366,0,1,0,-104,630,-327,265.44,-1.37,1.92,-1.1,90.13,15.47,40.3,0,0,0,0,
-27,49,1366,0,1,0,-105,629,-334,265.42,-1.37,1.92,-1.1,90.13,15.47,40.3,0,0,0,0,
-27,49,1366,0,1,0,-105,629,-334,265.42,-1.37,1.92,-1.1,90.13,15.47,40.3,0,0,0,0,
-27,49,1366,0,1,0,-105,629,-334,265.42,-1.37,1.92,-1.1,90.13,15.47,40.3,0,0,0,0,
-27,49,1366,0,1,0,-105,629,-334,265.42,-1.37,1.92,-1.1,90.13,15.47,40.3,0,0,0,0,
-26,50,1369,-3,0,0,-105,629,-334,265.42,-1.37,1.92,-1.1,90.13,15.47,40.3,0,0,0,0,
-26,50,1369,-3,0,0,-105,629,-334,265.42,-1.37,1.92,-1.1,90.13,15.47,40.3,0,0,0,0,
-26,50,1369,-3,0,0,-105,629,-334,265.42,-1.37,1.92,-1.1,90.13,15.47,40.3,0,0,0,0,
-30,56,1359,1,2,0,-105,629,-334,265.42,-1.37,1.92,-1.1,90.13,15.47,40.3,0,0,0,0,
-30,56,1359,1,2,0,-104,628,-328,265.41,-1.37,1.92,-1.1,90.13,15.47,40.3,0,0,0,0,
-30,56,1359,1,2,0,-104,628,-328,265.41,-1.37,1.92,-1.1,90.13,15.47,40.3,0,0,0,0,
-30,56,1359,1,2,0,-104,628,-328,265.41,-1.37,1.92,-1.1,90.13,15.47,40.3,0,0,0,0,
-30,56,1359,1,2,0,-104,628,-328,265.41,-1.37,1.92,-1.1,90.13,15.47,40.3,0,0,0,0,
-28,49,1366,0,1,2,-104,628,-328,265.41,-1.37,1.92,-1.1,90.13,15.47,40.3,0,0,0,0,
-28,49,1366,0,1,2,-104,628,-328,265.41,-1.37,1.92,-1.1,90.13,15.47,40.3,0,0,0,0,
-28,49,1366,0,1,2,-104,628,-328,265.41,-1.37,1.92,-1.1,90.13,15.47,40.3,0,0,0,0,
-27,48,1365,-2,1,-1,-104,628,-328,265.41,-1.37,1.92,-1.1,90.13,15.47,40.3,0,0,0,0,
-27,48,1365,-2,1,-1,-104,628,-328,265.41,-1.37,1.92,-1.1,90.13,15.47,40.3,0,0,0,0,
-27,49,1365,0,1,-1,-104,628,-328,265.41,-1.37,1.92,-1.1,90.13,15.47,40.3,0,0,0,0,
-27,49,1365,0,1,-1,-104,627,-328,265.46,-1.37,1.92,-1.1,90.13,15.47,40.3,0,0,0,0,
-27,49,1365,0,1,-1,-104,627,-328,265.46,-1.37,1.92,-1.1,90.13,15.47,40.3,0,0,0,0,
-27,49,1365,0,1,-1,-104,627,-328,265.46,-1.37,1.92,-1.1,90.13,15.47,40.3,0,0,0,0,
-27,49,1365,0,1,-1,-104,627,-328,265.46,-1.37,1.92,-1.1,90.13,15.47,40.3,0,0,0,0,
-32,50,1362,1,-1,1,-104,627,-328,265.46,-1.37,1.92,-1.1,90.13,15.47,40.3,0,0,0,0,
-32,50,1362,1,-1,1,-104,627,-328,265.46,-1.37,1.92,-1.1,90.13,15.47,40.3,0,0,0,0,
-32,50,1362,1,-1,1,-104,627,-328,265.46,-1.37,1.92,-1.1,90.13,15.47,40.3,0,0,0,0,
-27,50,1365,-3,0,-1,-104,627,-328,265.46,-1.37,1.92,-1.1,90.13,15.47,40.3,0,0,0,0,
-27,50,1365,-3,0,-1,-117,640,-330,265.41,-1.37,1.92,-1.1,90.13,15.47,40.3,0,0,0,0,
-27,50,1365,-3,0,-1,-117,640,-330,265.41,-1.37,1.92,-1.1,90.13,15.47,40.3,0,0,0,0,
-27,50,1365,-3,0,-1,-117,640,-330,265.41,-1.37,1.92,-1.1,90.13,15.47,40.3,0,0,0,0,
-27,50,1365,-3,0,-1,-117,640,-330,265.41,-1.37,1.92,-1.1,90.13,15.47,40.3,0,0,0,0,
-25,52,1364,1,2,-1,-117,640,-330,265.41,-1.37,1.92,-1.1,90.13,15.47,40.3,0,0,0,0,
-25,52,1364,1,2,-1,-117,640,-330,265.41,-1.37,1.93,-1.1,90.13,15.47,40.3,0,0,0,0,
-25,52,1364,1,2,-1,-117,640,-330,265.41,-1.37,1.93,-1.1,90.13,15.47,40.3,0,0,0,0,
-27,51,1364,-1,-3,2,-117,640,-330,265.41,-1.37,1.93,-1.1,90.13,15.47,40.3,0,0,0,0,
-27,51,1364,-1,-3,2,-117,640,-330,265.41,-1.37,1.93,-1.1,90.13,15.47,40.3,0,0,0,0,
-28,51,1366,1,0,2,-117,640,-330,265.41,-1.37,1.93,-1.1,90.13,15.47,40.3,0,0,0,0,
-28,51,1366,1,0,2,-116,637,-334,265.47,-1.37,1.93,-1.1,90.13,15.47,40.3,0,0,0,0,
-28,51,1366,1,0,2,-116,637,-334,265.47,-1.37,1.93,-1.09,90.13,15.47,40.3,0,0,0,0,
-28,51,1366,1,0,2,-116,637,-334,265.47,-1.37,1.93,-1.09,90.13,15.47,40.3,0,0,0,0,
-28,51,1366,1,0,2,-116,637,-334,265.47,-1.37,1.93,-1.09,90.13,15.47,40.3,0,0,0,0,
-28,51,1366,1,0,2,-116,637,-334,265.47,-1.37,1.93,-1.09,90.13,15.47,40.3,0,0,0,0,
-28,51,1365,0,1,0,-116,637,-334,265.47,-1.37,1.93,-1.09,90.13,15.47,40.3,0,0,0,0,
-28,51,1365,0,1,0,-116,637,-334,265.47,-1.37,1.93,-1.1,90.13,15.47,40.3,0,0,0,0,
-28,51,1365,0,1,0,-116,637,-334,265.47,-1.37,1.93,-1.1,90.13,15.47,40.3,0,0,0,0,
-33,52,1368,-1,0,3,-116,637,-334,265.47,-1.37,1.93,-1.1,90.13,15.47,40.3,0,0,0,0,
-33,52,1368,-1,0,3,-114,640,-344,265.43,-1.37,1.93,-1.1,90.13,15.47,40.3,0,0,0,0,
-33,52,1368,-1,0,3,-114,640,-344,265.43,-1.37,1.93,-1.1,90.13,15.47,40.3,0,0,0,0,
-33,52,1368,-1,0,3,-114,640,-344,265.43,-1.37,1.93,-1.1,90.13,15.47,40.3,0,0,0,0,
-33,52,1368,-1,0,3,-114,640,-344,265.43,-1.37,1.93,-1.1,90.13,15.47,40.3,0,0,0,0,
-28,47,1364,0,0,0,-114,640,-344,265.43,-1.37,1.93,-1.1,90.13,15.47,40.3,0,0,0,0,
-28,47,1364,0,0,0,-114,640,-344,265.43,-1.37,1.93,-1.1,90.13,15.47,40.3,0,0,0,0,
-28,47,1364,0,0,0,-114,640,-344,265.43,-1.37,1.93,-1.1,90.13,15.47,40.3,0,0,0,0,
-27,52,1367,0,-1,0,-114,640,-344,265.43,-1.37,1.93,-1.1,90.13,15.47,40.3,0,0,0,0,
-27,52,1367,0,-1,0,-114,640,-344,265.43,-1.37,1.93,-1.1,90.13,15.47,40.3,0,0,0,0,
-28,51,1364,0,0,-1,-114,640,-344,265.43,-1.37,1.93,-1.1,90.13,15.47,40.3,0,0,0,0,
-28,51,1364,0,0,-1,-118,641,-340,265.43,-1.37,1.93,-1.1,90.13,15.47,40.3,0,0,0,0,
-28,51,1364,0,0,-1,-118,641,-340,265.43,-1.37,1.94,-1.1,90.13,15.47,40.3,0,0,0,0,
-28,51,1364,0,0,-1,-118,641,-340,265.43,-1.37,1.94,-1.1,90.13,15.47,40.3,0,0,0,0,
-28,51,1364,0,0,-1,-118,641,-340,265.43,-1.37,1.94,-1.1,90.13,15.47,40.3,0,0,0,0,
-28,50,1364,3,2,0,-118,641,-340,265.43,-1.37,1.94,-1.1,90.13,15.47,40.3,0,0,0,0,
-28,50,1364,3,2,0,-118,641,-340,265.43,-1.37,1.94,-1.1,90.13,15.47,40.3,0,0,0,0,
-28,50,1364,3,2,0,-118,641,-340,265.43,-1.37,1.94,-1.1,90.13,15.47,40.3,0,0,0,0,
-30,51,1363,0,0,0,-118,641,-340,265.43,-1.37,1.94,-1.1,90.13,15.47,40.3,0,0,0,0,
-30,51,1363,0,0,0,-115,638,-337,265.37,-1.37,1.94,-1.1,90.13,15.47,40.3,0,0,0,0,
-30,51,1363,0,0,0,-115,638,-337,265.37,-1.37,1.94,-1.1,90.13,15.47,40.3,0,0,0,0,
-30,51,1363,0,0,0,-115,638,-337,265.37,-1.37,1.94,-1.1,90.13,15.47,40.3,0,0,0,0,
-30,51,1363,0,0,0,-115,638,-337,265.37,-1.37,1.94,-1.1,90.13,15.47,40.3,0,0,0,0,
-27,48,1361,-4,0,1,-115,638,-337,265.37,-1.37,1.94,-1.1,90.13,15.47,40.3,0,0,0,0,
-27,48,1361,-4,0,1,-115,638,-337,265.37,-1.37,1.94,-1.1,90.12,15.47,40.3,0,0,0,0,
-27,48,1361,-4,0,1,-115,638,-337,265.37,-1.37,1.94,-1.1,90.12,15.47,40.3,0,0,0,0,
-26,51,1365,-4,-2,-2,-115,638,-337,265.37,-1.37,1.94,-1.1,90.12,15.47,40.3,0,0,0,0,
-26,51,1365,-4,-2,-2,-115,638,-337,265.37,-1.37,1.94,-1.1,90.12,15.47,40.3,0,0,0,0,
-30,53,1361,2,0,0,-115,638,-337,265.37,-1.37,1.94,-1.1,90.12,15.47,40.3,0,0,0,0,
-30,53,1361,2,0,0,-117,640,-335,265.43,-1.37,1.94,-1.1,90.12,15.47,40.3,0,0,0,0,
-30,53,1361,2,0,0,-117,640,-335,265.43,-1.37,1.94,-1.1,90.12,15.47,40.3,0,0,0,0,
-30,53,1361,2,0,0,-117,640,-335,265.43,-1.37,1.94,-1.1,90.12,15.47,40.3,0,0,0,0,
-30,53,1361,2,0,0,-117,640,-335,265.43,-1.37,1.94,-1.1,90.12,15.47,40.3,0,0,0,0,
-30,50,1364,0,1,-1,-117,640,-335,265.43,-1.37,1.94,-1.1,90.12,15.47,40.3,0,0,0,0,
-30,50,1364,0,1,-1,-117,640,-335,265.43,-1.37,1.94,-1.1,90.12,15.47,40.3,0,0,0,0,
-30,50,1364,0,1,-1,-117,640,-335,265.43,-1.37,1.94,-1.1,90.12,15.47,40.3,0,0,0,0,
-26,50,1366,1,-4,-1,-117,640,-335,265.43,-1.37,1.94,-1.1,90.12,15.47,40.3,0,0,0,0,
-26,50,1366,1,-4,-1,-112,642,-325,265.42,-1.37,1.94,-1.1,90.12,15.47,40.3,0,0,0,0,
-26,50,1366,1,-4,-1,-112,642,-325,265.42,-1.37,1.94,-1.09,90.13,15.47,40.3,0,0,0,0,
-26,50,1366,1,-4,-1,-112,642,-325,265.42,-1.37,1.94,-1.09,90.13,15.47,40.3,0,0,0,0,
-26,50,1366,1,-4,-1,-112,642,-325,265.42,-1.37,1.94,-1.09,90.13,15.47,40.3,0,0,0,0,
-27,51,1369,-1,0,0,-112,642,-325,265.42,-1.37,1.94,-1.09,90.13,15.47,40.3,0,0,0,0,
-27,51,1369,-1,0,0,-112,642,-325,265.42,-1.37,1.94,-1.1,90.12,15.47,40.3,0,0,0,0,
-27,51,1369,-1,0,0,-112,642,-325,265.42,-1.37,1.94,-1.1,90.12,15.47,40.3,0,0,0,0,
-28,53,1366,-1,-1,0,-112,642,-325,265.42,-1.37,1.94,-1.1,90.12,15.47,40.3,0,0,0,0,
-28,53,1366,-1,-1,0,-112,642,-325,265.42,-1.37,1.94,-1.1,90.12,15.47,40.3,0,0,0,0,
-29,52,1365,1,0,0,-112,642,-325,265.42,-1.37,1.94,-1.1,90.12,15.47,40.3,0,0,0,0,
-29,52,1365,1,0,0,-111,645,-333,265.44,-1.37,1.94,-1.1,90.12,15.47,40.3,0,0,0,0,
-29,52,1365,1,0,0,-111,645,-333,265.44,-1.37,1.94,-1.1,90.12,15.47,40.3,0,0,0,0,
-29,52,1365,1,0,0,-111,645,-333,265.44,-1.37,1.94,-1.1,90.12,15.47,40.3,0,0,0,0,
-29,52,1365,1,0,0,-111,645,-333,265.44,-1.37,1.94,-1.1,90.12,15.47,40.3,0,0,0,0,
-29,52,1365,1,0,0,-111,645,-333,265.44,-1.37,1.94,-1.1,90.12,15.47,40.3,0,0,0,0,
-31,53,1365,0,0,-2,-111,645,-333,265.44,-1.37,1.94,-1.1,90.12,15.47,40.3,0,0,0,0,
-31,53,1365,0,0,-2,-111,645,-333,265.44,-1.37,1.94,-1.1,90.13,15.47,40.3,0,0,0,0,
-31,53,1365,0,0,-2,-111,645,-333,265.44,-1.37,1.94,-1.1,90.13,15.47,40.3,0,0,0,0,
-26,50,1365,-2,0,0,-111,645,-333,265.44,-1.37,1.94,-1.1,90.13,15.47,40.3,0,0,0,0,
-26,50,1365,-2,0,0,-118,642,-329,265.42,-1.37,1.94,-1.1,90.13,15.47,40.3,0,0,0,0,
-26,50,1365,-2,0,0,-118,642,-329,265.42,-1.37,1.94,-1.1,90.13,15.47,40.3,0,0,0,0,
-26,50,1365,-2,0,0,-118,642,-329,265.42,-1.37,1.94,-1.1,90.13,15.47,40.3,0,0,0,0,
-26,50,1365,-2,0,0,-118,642,-329,265.42,-1.37,1.94,-1.1,90.13,15.47,40.3,0,0,0,0,
-29,54,1364,-6,2,0,-118,642,-329,265.42,-1.37,1.94,-1.1,90.13,15.47,40.3,0,0,0,0,
-29,54,1364,-6,2,0,-118,642,-329,265.42,-1.37,1.94,-1.1,90.13,15.47,40.3,0,0,0,0,
-29,54,1364,-6,2,0,-118,642,-329,265.42,-1.37,1.94,-1.1,90.13,15.47,40.3,0,0,0,0,
-26,48,1364,-2,0,0,-118,642,-329,265.42,-1.37,1.94,-1.1,90.13,15.47,40.3,0,0,0,0,
-26,48,1364,-2,0,0,-118,642,-329,265.42,-1.37,1.94,-1.1,90.13,15.47,40.3,0,0,0,0,
-28,51,1365,1,-1,-1,-118,642,-329,265.42,-1.37,1.94,-1.1,90.13,15.47,40.3,0,0,0,0,
-28,51,1365,1,-1,-1,-115,644,-340,265.41,-1.37,1.94,-1.1,90.13,15.47,40.3,0,0,0,0,
-28,51,1365,1,-1,-1,-115,644,-340,265.41,-1.37,1.94,-1.09,90.13,15.47,40.3,0,0,0,0,
-28,51,1365,1,-1,-1,-115,644,-340,265.41,-1.37,1.94,-1.09,90.13,15.47,40.3,0,0,0,0,
-28,51,1365,1,-1,-1,-115,644,-340,265.41,-1.37,1.94,-1.09,90.13,15.47,40.3,0,0,0,0,
-28,51,1364,-2,0,0,-115,644,-340,265.41,-1.37,1.94,-1.09,90.13,15.47,40.3,0,0,0,0,
-28,51,1364,-2,0,0,-115,644,-340,265.41,-1.37,1.93,-1.09,90.13,15.47,40.3,0,0,0,0,
-28,51,1364,-2,0,0,-115,644,-340,265.41,-1.37,1.93,-1.09,90.13,15.47,40.3,0,0,0,0,
-28,51,1365,-2,2,-1,-115,644,-340,265.41,-1.37,1.93,-1.09,90.13,15.47,40.3,0,0,0,0,
-28,51,1365,-2,2,-1,-103,636,-328,265.47,-1.37,1.93,-1.09,90.13,15.47,40.3,0,0,0,0,
-28,51,1365,-2,2,-1,-103,636,-328,265.47,-1.37,1.93,-1.1,90.13,15.47,40.3,0,0,0,0,
-28,51,1365,-2,2,-1,-103,636,-328,265.47,-1.37,1.93,-1.1,90.13,15.47,40.3,0,0,0,0,
-28,51,1365,-2,2,-1,-103,636,-328,265.47,-1.37,1.93,-1.1,90.13,15.47,40.3,0,0,0,0,
-27,50,1361,1,0,0,-103,636,-328,265.47,-1.37,1.93,-1.1,90.13,15.47,40.3,0,0,0,0,
-27,50,1361,1,0,0,-103,636,-328,265.47,-1.37,1.94,-1.09,90.13,15.47,40.3,0,0,0,0,
-27,50,1361,1,0,0,-103,636,-328,265.47,-1.37,1.94,-1.09,90.13,15.47,40.3,0,0,0,0,
-29,50,1365,-2,0,0,-103,636,-328,265.47,-1.37,1.94,-1.09,90.13,15.47,40.3,0,0,0,0,
-29,50,1365,-2,0,0,-103,636,-328,265.47,-1.37,1.94,-1.09,90.13,15.47,40.3,0,0,0,0,
-29,52,1366,0,-1,-1,-103,636,-328,265.47,-1.37,1.94,-1.09,90.13,15.47,40.3,0,0,0,0,
-29,52,1366,0,-1,-1,-105,627,-337,265.42,-1.37,1.94,-1.09,90.13,15.47,40.3,0,0,0,0,
-29,52,1366,0,-1,-1,-105,627,-337,265.42,-1.37,1.94,-1.09,90.13,15.47,40.3,0,0,0,0,
-29,52,1366,0,-1,-1,-105,627,-337,265.42,-1.37,1.94,-1.09,90.13,15.47,40.3,0,0,0,0,
-29,52,1366,0,-1,-1,-105,627,-337,265.42,-1.37,1.94,-1.09,90.13,15.47,40.3,0,0,0,0,
-29,49,1363,0,-2,-2,-105,627,-337,265.42,-1.37,1.94,-1.09,90.13,15.47,40.3,0,0,0,0,
-29,49,1363,0,-2,-2,-105,627,-337,265.42,-1.37,1.94,-1.1,90.13,15.47,40.3,0,0,0,0,
-29,49,1363,0,-2,-2,-105,627,-337,265.42,-1.37,1.94,-1.1,90.13,15.47,40.3,0,0,0,0,
-27,54,1364,-3,-1,0,-105,627,-337,265.42,-1.37,1.94,-1.1,90.13,15.47,40.3,0,0,0,0,
-27,54,1364,-3,-1,0,-116,643,-328,265.43,-1.37,1.94,-1.1,90.13,15.47,40.3,0,0,0,0,
-27,54,1364,-3,-1,0,-116,643,-328,265.43,-1.37,1.94,-1.1,90.13,15.47,40.3,0,0,0,0,
-27,54,1364,-3,-1,0,-116,643,-328,265.43,-1.37,1.94,-1.1,90.13,15.47,40.3,0,0,0,0,
-27,54,1364,-3,-1,0,-116,643,-328,265.43,-1.37,1.94,-1.1,90.13,15.47,40.3,0,0,0,0,
-29,49,1366,-2,-1,1,-116,643,-328,265.43,-1.37,1.94,-1.1,90.13,15.47,40.3,0,0,0,0,
-29,49,1366,-2,-1,1,-116,643,-328,265.43,-1.37,1.94,-1.09,90.13,15.47,40.3,0,0,0,0,
-29,49,1366,-2,-1,1,-116,643,-328,265.43,-1.37,1.94,-1.09,90.13,15.47,40.3,0,0,0,0,
-28,49,1366,0,-1,2,-116,643,-328,265.43,-1.37,1.94,-1.09,90.13,15.47,40.3,0,0,0,0,
-28,49,1366,0,-1,2,-116,643,-328,265.43,-1.37,1.94,-1.09,90.13,15.47,40.3,0,0,0,0,
-29,47,1364,0,4,0,-116,643,-328,265.43,-1.37,1.94,-1.09,90.13,15.47,40.3,0,0,0,0,
-29,47,1364,0,4,0,-112,645,-342,265.43,-1.37,1.94,-1.09,90.13,15.47,40.3,0,0,0,0,
-29,47,1364,0,4,0,-112,645,-342,265.43,-1.37,1.94,-1.09,90.13,15.47,40.3,0,0,0,0,
-29,47,1364,0,4,0,-112,645,-342,265.43,-1.37,1.94,-1.09,90.13,15.47,40.3,0,0,0,0,
-29,47,1364,0,4,0,-112,645,-342,265.43,-1.37,1.94,-1.09,90.13,15.47,40.3,0,0,0,0,
-29,47,1364,0,4,0,-112,645,-342,265.43,-1.37,1.94,-1.09,90.13,15.47,40.3,0,0,0,0,
-31,52,1368,-1,1,-2,-112,645,-342,265.43,-1.37,1.94,-1.09,90.13,15.47,40.3,0,0,0,0,
-31,52,1368,-1,1,-2,-112,645,-342,265.43,-1.37,1.94,-1.09,90.13,15.47,40.3,0,0,0,0,
-31,52,1368,-1,1,-2,-112,645,-342,265.43,-1.37,1.94,-1.09,90.13,15.47,40.3,0,0,0,0,
-30,52,1365,-5,0,-1,-112,645,-342,265.43,-1.37,1.94,-1.09,90.13,15.47,40.3,0,0,0,0,
-30,52,1365,-5,0,-1,-112,645,-336,265.41,-1.37,1.94,-1.09,90.13,15.47,40.3,0,0,0,0,
-30,52,1365,-5,0,-1,-112,645,-336,265.41,-1.37,1.93,-1.09,90.13,15.47,40.3,0,0,0,0,
-30,52,1365,-5,0,-1,-112,645,-336,265.41,-1.37,1.93,-1.09,90.13,15.47,40.3,0,0,0,0,
-30,52,1365,-5,0,-1,-112,645,-336,265.41,-1.37,1.93,-1.09,90.13,15.47,40.3,0,0,0,0,
-29,51,1362,0,0,0,-112,645,-336,265.41,-1.37,1.93,-1.09,90.13,15.47,40.3,0,0,0,0,
-29,51,1362,0,0,0,-112,645,-336,265.41,-1.37,1.93,-1.09,90.13,15.47,40.3,0,0,0,0,
-29,51,1362,0,0,0,-112,645,-336,265.41,-1.37,1.93,-1.09,90.13,15.47,40.3,0,0,0,0,
-27,48,1364,0,0,-1,-112,645,-336,265.41,-1.37,1.93,-1.09,90.13,15.47,40.3,0,0,0,0,
-27,48,1364,0,0,-1,-112,645,-336,265.41,-1.37,1.93,-1.09,90.13,15.47,40.3,0,0,0,0,
-29,52,1365,-2,2,-2,-112,645,-336,265.41,-1.37,1.93,-1.09,90.13,15.47,40.3,0,0,0,0,
-29,52,1365,-2,2,-2,-117,639,-332,265.43,-1.37,1.93,-1.09,90.13,15.47,40.3,0,0,0,0,
-29,52,1365,-2,2,-2,-117,639,-332,265.43,-1.37,1.93,-1.09,90.13,15.47,40.3,0,0,0,0,
-29,52,1365,-2,2,-2,-117,639,-332,265.43,-1.37,1.93,-1.09,90.13,15.47,40.3,0,0,0,0,
-29,52,1365,-2,2,-2,-117,639,-332,265.43,-1.37,1.93,-1.09,90.13,15.47,40.3,0,0,0,0,
-29,47,1367,-1,0,0,-117,639,-332,265.43,-1.37,1.93,-1.09,90.13,15.47,40.3,0,0,0,0,
-29,47,1367,-1,0,0,-117,639,-332,265.43,-1.37,1.93,-1.09,90.13,15.47,40.3,0,0,0,0,
-29,47,1367,-1,0,0,-117,639,-332,265.43,-1.37,1.93,-1.09,90.13,15.47,40.3,0,0,0,0,
-30,51,1365,0,2,0,-117,639,-332,265.43,-1.37,1.93,-1.09,90.13,15.47,40.3,0,0,0,0,
-30,51,1365,0,2,0,-116,640,-326,265.45,-1.37,1.93,-1.09,90.13,15.47,40.3,0,0,0,0,
-30,51,1365,0,2,0,-116,640,-326,265.45,-1.37,1.94,-1.1,90.13,15.47,40.3,0,0,0,0,
-30,51,1365,0,2,0,-116,640,-326,265.45,-1.37,1.94,-1.1,90.13,15.47,40.3,0,0,0,0,
-30,51,1365,0,2,0,-116,640,-326,265.45,-1.37,1.94,-1.1,90.13,15.47,40.3,0,0,0,0,
-28,50,1368,-1,3,0,-116,640,-326,265.45,-1.37,1.94,-1.1,90.13,15.47,40.3,0,0,0,0,
-28,50,1368,-1,3,0,-116,640,-326,265.45,-1.37,1.94,-1.1,90.13,15.47,40.3,0,0,0,0,
-28,50,1368,-1,3,0,-116,640,-326,265.45,-1.37,1.94,-1.1,90.13,15.47,40.3,0,0,0,0,
-26,51,1363,0,-1,-1,-116,640,-326,265.45,-1.37,1.94,-1.1,90.13,15.47,40.3,0,0,0,0,
-26,51,1363,0,-1,-1,-116,640,-326,265.45,-1.37,1.94,-1.1,90.13,15.47,40.3,0,0,0,0,
-30,50,1363,-4,3,1,-116,640,-326,265.45,-1.37,1.94,-1.1,90.13,15.47,40.3,0,0,0,0,
-30,50,1363,-4,3,1,-114,642,-329,265.4,-1.37,1.94,-1.1,90.13,15.47,40.3,0,0,0,0,
-30,50,1363,-4,3,1,-114,642,-329,265.4,-1.37,1.94,-1.1,90.13,15.47,40.3,0,0,0,0,
-30,50,1363,-4,3,1,-114,642,-329,265.4,-1.37,1.94,-1.1,90.13,15.47,40.3,0,0,0,0,
-30,50,1363,-4,3,1,-114,642,-329,265.4,-1.37,1.94,-1.1,90.13,15.47,40.3,0,0,0,0,
-29,50,1367,0,0,-2,-114,642,-329,265.4,-1.37,1.94,-1.1,90.13,15.47,40.3,0,0,0,0,
-29,50,1367,0,0,-2,-114,642,-329,265.4,-1.37,1.94,-1.1,90.13,15.47,40.3,0,0,0,0,
-29,50,1367,0,0,-2,-114,642,-329,265.4,-1.37,1.94,-1.1,90.13,15.47,40.3,0,0,0,0,
-27,50,1368,-1,0,1,-114,642,-329,265.4,-1.37,1.94,-1.1,90.13,15.47,40.3,0,0,0,0,
-27,50,1368,-1,0,1,-116,641,-342,265.44,-1.37,1.94,-1.1,90.13,15.47,40.3,0,0,0,0,
-27,50,1368,-1,0,1,-116,641,-342,265.44,-1.37,1.94,-1.1,90.14,15.47,40.3,0,0,0,0,
-27,50,1368,-1,0,1,-116,641,-342,265.44,-1.37,1.94,-1.1,90.14,15.47,40.3,0,0,0,0,
-27,50,1368,-1,0,1,-116,641,-342,265.44,-1.37,1.94,-1.1,90.14,15.47,40.3,0,0,0,0,
-29,51,1366,-4,0,1,-116,641,-342,265.44,-1.37,1.94,-1.1,90.14,15.47,40.3,0,0,0,0,
-29,51,1366,-4,0,1,-116,641,-342,265.44,-1.37,1.94,-1.1,90.14,15.47,40.3,0,0,0,0,
-29,51,1366,-4,0,1,-116,641,-342,265.44,-1.37,1.94,-1.1,90.14,15.47,40.3,0,0,0,0,
-27,50,1367,-2,-4,0,-116,641,-342,265.44,-1.37,1.94,-1.1,90.14,15.47,40.3,0,0,0,0,
-27,50,1367,-2,-4,0,-116,641,-342,265.44,-1.37,1.94,-1.1,90.14,15.47,40.3,0,0,0,0,
-25,53,1364,-5,1,-2,-116,641,-342,265.44,-1.37,1.94,-1.1,90.14,15.47,40.3,0,0,0,0,
-25,53,1364,-5,1,-2,-117,641,-334,265.45,-1.37,1.94,-1.1,90.14,15.47,40.3,0,0,0,0,
-25,53,1364,-5,1,-2,-117,641,-334,265.45,-1.37,1.94,-1.1,90.14,15.47,40.3,0,0,0,0,
-25,53,1364,-5,1,-2,-117,641,-334,265.45,-1.37,1.94,-1.1,90.14,15.47,40.3,0,0,0,0,
-25,53,1364,-5,1,-2,-117,641,-334,265.45,-1.37,1.94,-1.1,90.14,15.47,40.3,0,0,0,0,
-25,53,1364,-5,1,-2,-117,641,-334,265.45,-1.37,1.94,-1.1,90.14,15.47,40.3,0,0,0,0,
-29,51,1365,-2,-1,0,-117,641,-334,265.45,-1.37,1.94,-1.1,90.14,15.47,40.3,0,0,0,0,
-29,51,1365,-2,-1,0,-117,641,-334,265.45,-1.37,1.94,-1.1,90.14,15.47,40.3,0,0,0,0,
-29,51,1365,-2,-1,0,-117,641,-334,265.45,-1.37,1.94,-1.1,90.14,15.47,40.3,0,0,0,0,
-29,52,1364,-4,0,0,-117,641,-334,265.45,-1.37,1.94,-1.1,90.14,15.47,40.3,0,0,0,0,
-29,52,1364,-4,0,0,-116,647,-336,265.45,-1.37,1.94,-1.1,90.14,15.47,40.3,0,0,0,0,
-29,52,1364,-4,0,0,-116,647,-336,265.45,-1.37,1.94,-1.1,90.14,15.47,40.3,0,0,0,0,
-29,52,1364,-4,0,0,-116,647,-336,265.45,-1.37,1.94,-1.1,90.14,15.47,40.3,0,0,0,0,
-29,52,1364,-4,0,0,-116,647,-336,265.45,-1.37,1.94,-1.1,90.14,15.47,40.3,0,0,0,0,
-28,55,1361,-4,0,-2,-116,647,-336,265.45,-1.37,1.94,-1.1,90.14,15.47,40.3,0,0,0,0,
-28,55,1361,-4,0,-2,-116,647,-336,265.45,-1.37,1.94,-1.1,90.14,15.47,40.3,0,0,0,0,
-28,55,1361,-4,0,-2,-116,647,-336,265.45,-1.37,1.94,-1.1,90.14,15.47,40.3,0,0,0,0,
-26,53,1365,-2,0,0,-116,647,-336,265.45,-1.37,1.94,-1.1,90.14,15.47,40.3,0,0,0,0,
-26,53,1365,-2,0,0,-116,647,-336,265.45,-1.37,1.94,-1.1,90.14,15.47,40.3,0,0,0,0,
-27,50,1360,0,1,0,-116,647,-336,265.45,-1.37,1.94,-1.1,90.14,15.47,40.3,0,0,0,0,
-27,50,1360,0,1,0,-117,639,-337,265.42,-1.37,1.94,-1.1,90.14,15.47,40.3,0,0,0,0,
-27,50,1360,0,1,0,-117,639,-337,265.42,-1.37,1.94,-1.1,90.14,15.47,40.3,0,0,0,0,
-27,50,1360,0,1,0,-117,639,-337,265.42,-1.37,1.94,-1.1,90.14,15.47,40.3,0,0,0,0,
-27,50,1360,0,1,0,-117,639,-337,265.42,-1.37,1.94,-1.1,90.14,15.47,40.3,0,0,0,0,
-30,52,1360,1,1,-2,-117,639,-337,265.42,-1.37,1.94,-1.1,90.14,15.47,40.3,0,0,0,0,
-30,52,1360,1,1,-2,-117,639,-337,265.42,-1.37,1.94,-1.1,90.14,15.47,40.3,0,0,0,0,
-30,52,1360,1,1,-2,-117,639,-337,265.42,-1.37,1.94,-1.1,90.14,15.47,40.3,0,0,0,0,
-28,51,1369,-1,-1,0,-117,639,-337,265.42,-1.37,1.94,-1.1,90.14,15.47,40.3,0,0,0,0,
-28,51,1369,-1,-1,0,-102,626,-330,265.45,-1.37,1.94,-1.1,90.14,15.47,40.3,0,0,0,0,
-28,51,1369,-1,-1,0,-102,626,-330,265.45,-1.37,1.94,-1.1,90.14,15.47,40.3,0,0,0,0,
-28,51,1369,-1,-1,0,-102,626,-330,265.45,-1.37,1.94,-1.1,90.14,15.47,40.3,0,0,0,0,
-28,51,1369,-1,-1,0,-102,626,-330,265.45,-1.37,1.94,-1.1,90.14,15.47,40.3,0,0,0,0,
-29,51,1363,-5,0,0,-102,626,-330,265.45,-1.37,1.94,-1.1,90.14,15.47,40.3,0,0,0,0,
-29,51,1363,-5,0,0,-102,626,-330,265.45,-1.37,1.94,-1.1,90.14,15.47,40.3,0,0,0,0,
-29,51,1363,-5,0,0,-102,626,-330,265.45,-1.37,1.94,-1.1,90.14,15.47,40.3,0,0,0,0,
-29,50,1361,0,1,-1,-102,626,-330,265.45,-1.37,1.94,-1.1,90.14,15.47,40.3,0,0,0,0,
-29,50,1361,0,1,-1,-102,626,-330,265.45,-1.37,1.94,-1.1,90.14,15.47,40.3,0,0,0,0,
-27,54,1366,-3,0,1,-102,626,-330,265.45,-1.37,1.94,-1.1,90.14,15.47,40.3,0,0,0,0,
-27,54,1366,-3,0,1,-103,634,-328,265.43,-1.37,1.94,-1.1,90.14,15.47,40.3,0,0,0,0,
-27,54,1366,-3,0,1,-103,634,-328,265.43,-1.37,1.93,-1.1,90.14,15.47,40.3,0,0,0,0,
-27,54,1366,-3,0,1,-103,634,-328,265.43,-1.37,1.93,-1.1,90.14,15.47,40.3,0,0,0,0,
-27,54,1366,-3,0,1,-103,634,-328,265.43,-1.37,1.93,-1.1,90.14,15.47,40.3,0,0,0,0,
-25,49,1367,-4,-2,1,-103,634,-328,265.43,-1.37,1.93,-1.1,90.14,15.47,40.3,0,0,0,0,
-25,49,1367,-4,-2,1,-103,634,-328,265.43,-1.37,1.93,-1.1,90.15,15.47,40.3,0,0,0,0,
-25,49,1367,-4,-2,1,-103,634,-328,265.43,-1.37,1.93,-1.1,90.15,15.47,40.3,0,0,0,0,
-31,50,1363,0,0,2,-103,634,-328,265.43,-1.37,1.93,-1.1,90.15,15.47,40.3,0,0,0,0,
-31,50,1363,0,0,2,-101,633,-327,265.44,-1.37,1.93,-1.1,90.15,15.47,40.3,0,0,0,0,
-31,50,1363,0,0,2,-101,633,-327,265.44,-1.37,1.93,-1.1,90.15,15.47,40.3,0,0,0,0,
-31,50,1363,0,0,2,-101,633,-327,265.44,-1.37,1.93,-1.1,90.15,15.47,40.3,0,0,0,0,
-31,50,1363,0,0,2,-101,633,-327,265.44,-1.37,1.93,-1.1,90.15,15.47,40.3,0,0,0,0,
-30,49,1366,0,-1,2,-101,633,-327,265.44,-1.37,1.93,-1.1,90.15,15.47,40.3,0,0,0,0,
-30,49,1366,0,-1,2,-101,633,-327,265.44,-1.37,1.93,-1.1,90.15,15.47,40.3,0,0,0,0,
-30,49,1366,0,-1,2,-101,633,-327,265.44,-1.37,1.93,-1.1,90.15,15.47,40.3,0,0,0,0,
-28,49,1364,-2,-1,0,-101,633,-327,265.44,-1.37,1.93,-1.1,90.15,15.47,40.3,0,0,0,0,
-28,49,1364,-2,-1,0,-101,633,-327,265.44,-1.37,1.93,-1.1,90.15,15.47,40.3,0,0,0,0,
-29,49,1365,0,-1,-2,-101,633,-327,265.44,-1.37,1.93,-1.1,90.15,15.47,40.3,0,0,0,0,
-29,49,1365,0,-1,-2,-101,629,-325,265.43,-1.37,1.93,-1.1,90.15,15.47,40.3,0,0,0,0,
-29,49,1365,0,-1,-2,-101,629,-325,265.43,-1.37,1.94,-1.1,90.15,15.47,40.3,0,0,0,0,
-29,49,1365,0,-1,-2,-101,629,-325,265.43,-1.37,1.94,-1.1,90.15,15.47,40.3,0,0,0,0,
-29,49,1365,0,-1,-2,-101,629,-325,265.43,-1.37,1.94,-1.1,90.15,15.47,40.3,0,0,0,0,
-29,49,1365,0,-1,-2,-101,629,-325,265.43,-1.37,1.94,-1.1,90.15,15.47,40.3,0,0,0,0,
-29,52,1364,-1,1,1,-101,629,-325,265.43,-1.37,1.94,-1.1,90.15,15.47,40.3,0,0,0,0,
-29,52,1364,-1,1,1,-101,629,-325,265.43,-1.37,1.94,-1.1,90.15,15.47,40.3,0,0,0,0,
-29,52,1364,-1,1,1,-101,629,-325,265.43,-1.37,1.94,-1.1,90.15,15.47,40.3,0,0,0,0,
-29,48,1366,0,2,-1,-101,629,-325,265.43,-1.37,1.94,-1.1,90.15,15.47,40.3,0,0,0,0,
-29,48,1366,0,2,-1,-99,626,-335,265.41,-1.37,1.94,-1.1,90.15,15.47,40.3,0,0,0,0,
-29,48,1366,0,2,-1,-99,626,-335,265.41,-1.37,1.94,-1.1,90.15,15.47,40.3,0,0,0,0,
-29,48,1366,0,2,-1,-99,626,-335,265.41,-1.37,1.94,-1.1,90.15,15.47,40.3,0,0,0,0,
-29,48,1366,0,2,-1,-99,626,-335,265.41,-1.37,1.94,-1.1,90.15,15.47,40.3,0,0,0,0,
-26,50,1362,0,1,-1,-99,626,-335,265.41,-1.37,1.94,-1.1,90.15,15.47,40.3,0,0,0,0,
-26,50,1362,0,1,-1,-99,626,-335,265.41,-1.37,1.94,-1.11,90.15,15.47,40.3,0,0,0,0,
-26,50,1362,0,1,-1,-99,626,-335,265.41,-1.37,1.94,-1.11,90.15,15.47,40.3,0,0,0,0,
-31,49,1366,-1,0,0,-99,626,-335,265.41,-1.37,1.94,-1.11,90.15,15.47,40.3,0,0,0,0,
-31,49,1366,-1,0,0,-99,626,-335,265.41,-1.37,1.94,-1.11,90.15,15.47,40.3,0,0,0,0,
-25,49,1366,-2,-1,0,-99,626,-335,265.41,-1.37,1.94,-1.11,90.15,15.47,40.3,0,0,0,0,
-25,49,1366,-2,-1,0,-108,629,-325,265.41,-1.37,1.94,-1.11,90.15,15.47,40.3,0,0,0,0,
-25,49,1366,-2,-1,0,-108,629,-325,265.41,-1.37,1.93,-1.11,90.15,15.47,40.3,0,0,0,0,
-25,49,1366,-2,-1,0,-108,629,-325,265.41,-1.37,1.93,-1.11,90.15,15.47,40.3,0,0,0,0,
-25,49,1366,-2,-1,0,-108,629,-325,265.41,-1.37,1.93,-1.11,90.15,15.47,40.3,0,0,0,0,
-28,50,1365,-1,-1,-2,-108,629,-325,265.41,-1.37,1.93,-1.11,90.15,15.47,40.3,0,0,0,0,
-28,50,1365,-1,-1,-2,-108,629,-325,265.41,-1.37,1.93,-1.11,90.15,15.47,40.3,0,0,0,0,
-28,50,1365,-1,-1,-2,-108,629,-325,265.41,-1.37,1.93,-1.11,90.15,15.47,40.3,0,0,0,0,
-29,51,1366,0,2,0,-108,629,-325,265.41,-1.37,1.93,-1.11,90.15,15.47,40.3,0,0,0,0,
-29,51,1366,0,2,0,-108,635,-332,265.43,-1.37,1.93,-1.11,90.15,15.47,40.3,0,0,0,0,
-29,51,1366,0,2,0,-108,635,-332,265.43,-1.37,1.94,-1.11,90.15,15.47,40.3,0,0,0,0,
-29,51,1366,0,2,0,-108,635,-332,265.43,-1.37,1.94,-1.11,90.15,15.47,40.3,0,0,0,0,
-29,51,1366,0,2,0,-108,635,-332,265.43,-1.37,1.94,-1.11,90.15,15.47,40.3,0,0,0,0,
-30,49,1366,-1,0,0,-108,635,-332,265.43,-1.37,1.94,-1.11,90.15,15.47,40.3,0,0,0,0,
-30,49,1366,-1,0,0,-108,635,-332,265.43,-1.37,1.94,-1.11,90.15,15.47,40.3,0,0,0,0,
-30,49,1366,-1,0,0,-108,635,-332,265.43,-1.37,1.94,-1.11,90.15,15.47,40.3,0,0,0,0,
-28,55,1364,-7,1,0,-108,635,-332,265.43,-1.37,1.94,-1.11,90.15,15.47,40.3,0,0,0,0,
-28,55,1364,-7,1,0,-108,635,-332,265.43,-1.37,1.94,-1.11,90.15,15.47,40.3,0,0,0,0,
-30,47,1364,-1,2,0,-108,635,-332,265.43,-1.37,1.94,-1.11,90.15,15.47,40.3,0,0,0,0,
-30,47,1364,-1,2,0,-103,633,-328,265.43,-1.37,1.94,-1.11,90.15,15.47,40.3,0,0,0,0,
-30,47,1364,-1,2,0,-103,633,-328,265.43,-1.37,1.93,-1.11,90.15,15.47,40.3,0,0,0,0,
-30,47,1364,-1,2,0,-103,633,-328,265.43,-1.37,1.93,-1.11,90.15,15.47,40.3,0,0,0,0,
-30,47,1364,-1,2,0,-103,633,-328,265.43,-1.37,1.93,-1.11,90.15,15.47,40.3,0,0,0,0,
-29,52,1364,-1,0,0,-103,633,-328,265.43,-1.37,1.93,-1.11,90.15,15.47,40.3,0,0,0,0,
-29,52,1364,-1,0,0,-103,633,-328,265.43,-1.37,1.93,-1.11,90.15,15.47,40.3,0,0,0,0,
-29,52,1364,-1,0,0,-103,633,-328,265.43,-1.37,1.93,-1.11,90.15,15.47,40.3,0,0,0,0,
-28,51,1366,-1,2,-2,-103,633,-328,265.43,-1.37,1.93,-1.11,90.15,15.47,40.3,0,0,0,0,
-28,51,1366,-1,2,-2,-104,627,-330,265.42,-1.37,1.93,-1.11,90.15,15.47,40.3,0,0,0,0,
-28,51,1366,-1,2,-2,-104,627,-330,265.42,-1.37,1.94,-1.11,90.15,15.47,40.3,0,0,0,0,
-28,51,1366,-1,2,-2,-104,627,-330,265.42,-1.37,1.94,-1.11,90.15,15.47,40.3,0,0,0,0,
-28,51,1366,-1,2,-2,-104,627,-330,265.42,-1.37,1.94,-1.11,90.15,15.47,40.3,0,0,0,0,
-28,53,1365,-2,0,0,-104,627,-330,265.42,-1.37,1.94,-1.11,90.15,15.47,40.3,0,0,0,0,
-28,53,1365,-2,0,0,-104,627,-330,265.42,-1.37,1.94,-1.11,90.16,15.47,40.3,0,0,0,0,
-28,53,1365,-2,0,0,-104,627,-330,265.42,-1.37,1.94,-1.11,90.16,15.47,40.3,0,0,0,0,
-27,52,1364,-1,-2,1,-104,627,-330,265.42,-1.37,1.94,-1.11,90.16,15.47,40.3,0,0,0,0,
-27,52,1364,-1,-2,1,-104,627,-330,265.42,-1.37,1.94,-1.11,90.16,15.47,40.3,0,0,0,0,
-29,48,1365,-4,-2,-2,-104,627,-330,265.42,-1.37,1.94,-1.11,90.16,15.47,40.3,0,0,0,0,
-29,48,1365,-4,-2,-2,-104,630,-333,265.41,-1.37,1.94,-1.11,90.16,15.47,40.3,0,0,0,0,
-29,48,1365,-4,-2,-2,-104,630,-333,265.41,-1.37,1.94,-1.11,90.16,15.47,40.3,0,0,0,0,
-29,48,1365,-4,-2,-2,-104,630,-333,265.41,-1.37,1.94,-1.11,90.16,15.47,40.3,0,0,0,0,
-29,48,1365,-4,-2,-2,-104,630,-333,265.41,-1.37,1.94,-1.11,90.16,15.47,40.3,0,0,0,0,
-29,48,1365,-4,-2,-2,-104,630,-333,265.41,-1.37,1.94,-1.11,90.16,15.47,40.3,0,0,0,0,
-28,52,1364,-3,0,0,-104,630,-333,265.41,-1.37,1.94,-1.11,90.16,15.47,40.3,0,0,0,0,
-28,52,1364,-3,0,0,-104,630,-333,265.41,-1.37,1.94,-1.11,90.16,15.47,40.3,0,0,0,0,
-28,52,1364,-3,0,0,-104,630,-333,265.41,-1.37,1.94,-1.11,90.16,15.47,40.3,0,0,0,0,
-29,51,1366,-1,0,0,-104,630,-333,265.41,-1.37,1.94,-1.11,90.16,15.47,40.3,0,0,0,0,
-29,51,1366,-1,0,0,-111,636,-336,265.41,-1.37,1.94,-1.11,90.16,15.47,40.3,0,0,0,0,
-29,51,1366,-1,0,0,-111,636,-336,265.41,-1.37,1.94,-1.1,90.15,15.47,40.3,0,0,0,0,
-29,51,1366,-1,0,0,-111,636,-336,265.41,-1.37,1.94,-1.1,90.15,15.47,40.3,0,0,0,0,
-29,51,1366,-1,0,0,-111,636,-336,265.41,-1.37,1.94,-1.1,90.15,15.47,40.3,0,0,0,0,
-30,52,1365,-6,1,2,-111,636,-336,265.41,-1.37,1.94,-1.1,90.15,15.47,40.3,0,0,0,0,
-30,52,1365,-6,1,2,-111,636,-336,265.41,-1.37,1.94,-1.1,90.16,15.47,40.3,0,0,0,0,
-30,52,1365,-6,1,2,-111,636,-336,265.41,-1.37,1.94,-1.1,90.16,15.47,40.3,0,0,0,0,
-30,50,1365,-1,-1,1,-111,636,-336,265.41,-1.37,1.94,-1.1,90.16,15.47,40.3,0,0,0,0,
-30,50,1365,-1,-1,1,-111,636,-336,265.41,-1.37,1.94,-1.1,90.16,15.47,40.3,0,0,0,0,
-27,48,1363,-1,2,2,-111,636,-336,265.41,-1.37,1.94,-1.1,90.16,15.47,40.3,0,0,0,0,
-27,48,1363,-1,2,2,-109,646,-330,265.42,-1.37,1.94,-1.1,90.16,15.47,40.3,0,0,0,0,
-27,48,1363,-1,2,2,-109,646,-330,265.42,-1.37,1.94,-1.1,90.15,15.47,40.3,0,0,0,0,
-27,48,1363,-1,2,2,-109,646,-330,265.42,-1.37,1.94,-1.1,90.15,15.47,40.3,0,0,0,0,
-27,48,1363,-1,2,2,-109,646,-330,265.42,-1.37,1.94,-1.1,90.15,15.47,40.3,0,0,0,0,
-29,48,1363,0,-3,-1,-109,646,-330,265.42,-1.37,1.94,-1.1,90.15,15.47,40.3,0,0,0,0,
-29,48,1363,0,-3,-1,-109,646,-330,265.42,-1.37,1.94,-1.1,90.15,15.47,40.3,0,0,0,0,
-29,48,1363,0,-3,-1,-109,646,-330,265.42,-1.37,1.94,-1.1,90.15,15.47,40.3,0,0,0,0,
-27,50,1365,-2,1,1,-109,646,-330,265.42,-1.37,1.94,-1.1,90.15,15.47,40.3,0,0,0,0,
-27,50,1365,-2,1,1,-112,637,-334,265.42,-1.37,1.94,-1.1,90.15,15.47,40.3,0,0,0,0,
-27,50,1365,-2,1,1,-112,637,-334,265.42,-1.37,1.94,-1.1,90.15,15.47,40.3,0,0,0,0,
-27,50,1365,-2,1,1,-112,637,-334,265.42,-1.37,1.94,-1.1,90.15,15.47,40.3,0,0,0,0,
-27,50,1365,-2,1,1,-112,637,-334,265.42,-1.37,1.94,-1.1,90.15,15.47,40.3,0,0,0,0,
-32,50,1364,-2,1,0,-112,637,-334,265.42,-1.37,1.94,-1.1,90.15,15.47,40.3,0,0,0,0,
-32,50,1364,-2,1,0,-112,637,-334,265.42,-1.37,1.94,-1.1,90.15,15.47,40.3,0,0,0,0,
-32,50,1364,-2,1,0,-112,637,-334,265.42,-1.37,1.94,-1.1,90.15,15.47,40.3,0,0,0,0,
-27,53,1365,-2,0,-2,-112,637,-334,265.42,-1.37,1.94,-1.1,90.15,15.47,40.3,0,0,0,0,
-27,53,1365,-2,0,-2,-112,637,-334,265.42,-1.37,1.94,-1.1,90.15,15.47,40.3,0,0,0,0,
-26,49,1364,0,-4,-1,-112,637,-334,265.42,-1.37,1.94,-1.1,90.15,15.47,40.3,0,0,0,0,
-26,49,1364,0,-4,-1,-111,644,-331,265.41,-1.37,1.94,-1.1,90.15,15.47,40.3,0,0,0,0,
-26,49,1364,0,-4,-1,-111,644,-331,265.41,-1.37,1.94,-1.1,90.16,15.47,40.3,0,0,0,0,
-26,49,1364,0,-4,-1,-111,644,-331,265.41,-1.36,1.94,-1.1,90.16,15.47,40.3,0,0,0,0,
-26,49,1364,0,-4,-1,-111,644,-331,265.41,-1.36,1.94,-1.1,90.16,15.47,40.3,0,0,0,0,
-29,54,1365,-3,1,-2,-111,644,-331,265.41,-1.36,1.94,-1.1,90.16,15.47,40.3,0,0,0,0,
-29,54,1365,-3,1,-2,-111,644,-331,265.41,-1.36,1.94,-1.1,90.16,15.47,40.3,0,0,0,0,
-29,54,1365,-3,1,-2,-111,644,-331,265.41,-1.36,1.94,-1.1,90.16,15.47,40.3,0,0,0,0,
-27,50,1366,-4,1,-1,-111,644,-331,265.41,-1.36,1.94,-1.1,90.16,15.47,40.3,0,0,0,0,
-27,50,1366,-4,1,-1,-100,633,-342,265.42,-1.36,1.94,-1.1,90.16,15.47,40.3,0,0,0,0,
-27,50,1366,-4,1,-1,-100,633,-342,265.42,-1.36,1.94,-1.1,90.16,15.47,40.3,0,0,0,0,
-27,50,1366,-4,1,-1,-100,633,-342,265.42,-1.36,1.94,-1.1,90.16,15.47,40.3,0,0,0,0,
-27,50,1366,-4,1,-1,-100,633,-342,265.42,-1.36,1.94,-1.1,90.16,15.47,40.3,0,0,0,0,
-29,50,1365,-2,0,0,-100,633,-342,265.42,-1.36,1.94,-1.1,90.16,15.47,40.3,0,0,0,0,
-29,50,1365,-2,0,0,-100,633,-342,265.42,-1.36,1.93,-1.1,90.16,15.47,40.3,0,0,0,0,
-29,50,1365,-2,0,0,-100,633,-342,265.42,-1.36,1.93,-1.1,90.16,15.47,40.3,0,0,0,0,
-27,55,1365,-4,0,0,-100,633,-342,265.42,-1.36,1.93,-1.1,90.16,15.47,40.3,0,0,0,0,
-27,55,1365,-4,0,0,-100,633,-342,265.42,-1.36,1.93,-1.1,90.16,15.47,40.3,0,0,0,0,
-28,50,1367,-4,1,-1,-100,633,-342,265.42,-1.36,1.93,-1.1,90.16,15.47,40.3,0,0,0,0,
-28,50,1367,-4,1,-1,-104,635,-326,265.43,-1.36,1.93,-1.1,90.16,15.47,40.3,0,0,0,0,
-28,50,1367,-4,1,-1,-104,635,-326,265.43,-1.36,1.93,-1.1,90.16,15.47,40.3,0,0,0,0,
-28,50,1367,-4,1,-1,-104,635,-326,265.43,-1.36,1.93,-1.1,90.16,15.47,40.3,0,0,0,0,
-28,50,1367,-4,1,-1,-104,635,-326,265.43,-1.36,1.93,-1.1,90.16,15.47,40.3,0,0,0,0,
-28,50,1367,-4,1,-1,-104,635,-326,265.43,-1.36,1.93,-1.1,90.16,15.47,40.3,0,0,0,0,
-26,46,1365,0,0,0,-104,635,-326,265.43,-1.36,1.93,-1.1,90.16,15.47,40.3,0,0,0,0,
-26,46,1365,0,0,0,-104,635,-326,265.43,-1.36,1.93,-1.1,90.16,15.47,40.3,0,0,0,0,
-26,46,1365,0,0,0,-104,635,-326,265.43,-1.36,1.93,-1.1,90.16,15.47,40.3,0,0,0,0,
-29,52,1366,0,0,1,-104,635,-326,265.43,-1.36,1.93,-1.1,90.16,15.47,40.3,0,0,0,0,
-29,52,1366,0,0,1,-117,645,-336,265.45,-1.36,1.93,-1.1,90.16,15.47,40.3,0,0,0,0,
-29,52,1366,0,0,1,-117,645,-336,265.45,-1.36,1.93,-1.1,90.15,15.47,40.3,0,0,0,0,
-29,52,1366,0,0,1,-117,645,-336,265.45,-1.36,1.93,-1.1,90.15,15.47,40.3,0,0,0,0,
-29,52,1366,0,0,1,-117,645,-336,265.45,-1.36,1.93,-1.1,90.15,15.47,40.3,0,0,0,0,
-27,52,1365,-2,0,2,-117,645,-336,265.45,-1.36,1.93,-1.1,90.15,15.47,40.3,0,0,0,0,
-27,52,1365,-2,0,2,-117,645,-336,265.45,-1.36,1.93,-1.1,90.15,15.47,40.3,0,0,0,0,
-27,52,1365,-2,0,2,-117,645,-336,265.45,-1.36,1.93,-1.1,90.15,15.47,40.3,0,0,0,0,
-29,50,1360,-2,0,-2,-117,645,-336,265.45,-1.36,1.93,-1.1,90.15,15.47,40.3,0,0,0,0,
-29,50,1360,-2,0,-2,-117,645,-336,265.45,-1.36,1.93,-1.1,90.15,15.47,40.3,0,0,0,0,
-30,49,1363,1,1,1,-117,645,-336,265.45,-1.36,1.93,-1.1,90.15,15.47,40.3,0,0,0,0,
-30,49,1363,1,1,1,-113,645,-335,265.43,-1.36,1.93,-1.1,90.15,15.47,40.3,0,0,0,0,
-30,49,1363,1,1,1,-113,645,-335,265.43,-1.36,1.93,-1.1,90.15,15.47,40.3,0,0,0,0,
-30,49,1363,1,1,1,-113,645,-335,265.43,-1.36,1.93,-1.1,90.15,15.47,40.3,0,0,0,0,
-30,49,1363,1,1,1,-113,645,-335,265.43,-1.36,1.93,-1.1,90.15,15.47,40.3,0,0,0,0,
-29,49,1362,1,0,2,-113,645,-335,265.43,-1.36,1.93,-1.1,90.15,15.47,40.3,0,0,0,0,
-29,49,1362,1,0,2,-113,645,-335,265.43,-1.36,1.93,-1.1,90.15,15.47,40.3,0,0,0,0,
-29,49,1362,1,0,2,-113,645,-335,265.43,-1.36,1.93,-1.1,90.15,15.47,40.3,0,0,0,0,
-26,48,1362,-2,0,0,-113,645,-335,265.43,-1.36,1.93,-1.1,90.15,15.47,40.3,0,0,0,0,
-26,48,1362,-2,0,0,-119,642,-334,265.44,-1.36,1.93,-1.1,90.15,15.47,40.3,0,0,0,0,
-26,48,1362,-2,0,0,-119,642,-334,265.44,-1.36,1.93,-1.1,90.15,15.47,40.3,0,0,0,0,
-26,48,1362,-2,0,0,-119,642,-334,265.44,-1.36,1.93,-1.1,90.15,15.47,40.3,0,0,0,0,
-26,48,1362,-2,0,0,-119,642,-334,265.44,-1.36,1.93,-1.1,90.15,15.47,40.3,0,0,0,0,
-28,50,1365,-3,1,3,-119,642,-334,265.44,-1.36,1.93,-1.1,90.15,15.47,40.3,0,0,0,0,
-28,50,1365,-3,1,3,-119,642,-334,265.44,-1.36,1.92,-1.1,90.15,15.47,40.3,0,0,0,0,
-28,50,1365,-3,1,3,-119,642,-334,265.44,-1.36,1.92,-1.1,90.15,15.47,40.3,0,0,0,0,
-29,49,1364,-4,0,0,-119,642,-334,265.44,-1.36,1.92,-1.1,90.15,15.47,40.3,0,0,0,0,
-29,49,1364,-4,0,0,-119,642,-334,265.44,-1.36,1.92,-1.1,90.15,15.47,40.3,0,0,0,0,
-27,50,1365,-1,-2,-1,-119,642,-334,265.44,-1.36,1.92,-1.1,90.15,15.47,40.3,0,0,0,0,
-27,50,1365,-1,-2,-1,-114,648,-340,265.45,-1.36,1.92,-1.1,90.15,15.47,40.3,0,0,0,0,
-27,50,1365,-1,-2,-1,-114,648,-340,265.45,-1.36,1.92,-1.1,90.15,15.47,40.3,0,0,0,0,
-27,50,1365,-1,-2,-1,-114,648,-340,265.45,-1.36,1.92,-1.1,90.15,15.47,40.3,0,0,0,0,
-27,50,1365,-1,-2,-1,-114,648,-340,265.45,-1.36,1.92,-1.1,90.15,15.47,40.3,0,0,0,0,
-30,49,1362,-1,1,3,-114,648,-340,265.45,-1.36,1.92,-1.1,90.15,15.47,40.3,0,0,0,0,
-30,49,1362,-1,1,3,-114,648,-340,265.45,-1.36,1.92,-1.1,90.15,15.47,40.3,0,0,0,0,
-30,49,1362,-1,1,3,-114,648,-340,265.45,-1.36,1.92,-1.1,90.15,15.47,40.3,0,0,0,0,
-30,50,1368,-3,-1,-2,-114,648,-340,265.45,-1.36,1.92,-1.1,90.15,15.47,40.3,0,0,0,0,
-30,50,1368,-3,-1,-2,-106,626,-333,265.43,-1.36,1.92,-1.1,90.15,15.47,40.3,0,0,0,0,
-30,50,1368,-3,-1,-2,-106,626,-333,265.43,-1.36,1.92,-1.1,90.15,15.47,40.3,0,0,0,0,
-30,50,1368,-3,-1,-2,-106,626,-333,265.43,-1.36,1.92,-1.1,90.15,15.47,40.3,0,0,0,0,
-30,50,1368,-3,-1,-2,-106,626,-333,265.43,-1.36,1.92,-1.1,90.15,15.47,40.3,0,0,0,0,
-31,53,1364,-2,0,0,-106,626,-333,265.43,-1.36,1.92,-1.1,90.15,15.47,40.3,0,0,0,0,
-31,53,1364,-2,0,0,-106,626,-333,265.43,-1.36,1.93,-1.1,90.15,15.47,40.3,0,0,0,0,
-31,53,1364,-2,0,0,-106,626,-333,265.43,-1.36,1.93,-1.1,90.15,15.47,40.3,0,0,0,0,
-31,50,1364,1,-1,1,-106,626,-333,265.43,-1.36,1.93,-1.1,90.15,15.47,40.3,0,0,0,0,
-31,50,1364,1,-1,1,-106,626,-333,265.43,-1.36,1.93,-1.1,90.15,15.47,40.3,0,0,0,0,
-29,48,1360,-1,2,0,-106,626,-333,265.43,-1.36,1.93,-1.1,90.15,15.47,40.3,0,0,0,0,
-29,48,1360,-1,2,0,-105,631,-328,265.46,-1.36,1.93,-1.1,90.15,15.47,40.3,0,0,0,0,
-29,48,1360,-1,2,0,-105,631,-328,265.46,-1.36,1.93,-1.1,90.15,15.47,40.3,0,0,0,0,
-29,48,1360,-1,2,0,-105,631,-328,265.46,-1.36,1.93,-1.1,90.15,15.47,40.3,0,0,0,0,
-29,48,1360,-1,2,0,-105,631,-328,265.46,-1.36,1.93,-1.1,90.15,15.47,40.3,0,0,0,0,
-29,48,1360,-1,2,0,-105,631,-328,265.46,-1.36,1.93,-1.1,90.15,15.47,40.3,0,0,0,0,
-29,47,1364,1,1,-2,-105,631,-328,265.46,-1.36,1.93,-1.1,90.15,15.47,40.3,0,0,0,0,
-29,47,1364,1,1,-2,-105,631,-328,265.46,-1.36,1.93,-1.1,90.15,15.47,40.3,0,0,0,0,
-29,47,1364,1,1,-2,-105,631,-328,265.46,-1.36,1.93,-1.1,90.15,15.47,40.3,0,0,0,0,
-28,51,1363,-7,-1,0,-105,631,-328,265.46,-1.36,1.93,-1.1,90.15,15.47,40.3,0,0,0,0,
-28,51,1363,-7,-1,0,-126,650,-334,265.4,-1.36,1.93,-1.1,90.15,15.47,40.3,0,0,0,0,
-28,51,1363,-7,-1,0,-126,650,-334,265.4,-1.36,1.93,-1.1,90.15,15.47,40.3,0,0,0,0,
-28,51,1363,-7,-1,0,-126,650,-334,265.4,-1.36,1.93,-1.1,90.15,15.47,40.3,0,0,0,0,
-28,51,1363,-7,-1,0,-126,650,-334,265.4,-1.36,1.93,-1.1,90.15,15.47,40.3,0,0,0,0,
-30,52,1365,0,-2,0,-126,650,-334,265.4,-1.36,1.93,-1.1,90.15,15.47,40.3,0,0,0,0,
-30,52,1365,0,-2,0,-126,650,-334,265.4,-1.36,1.93,-1.1,90.15,15.47,40.3,0,0,0,0,
-30,52,1365,0,-2,0,-126,650,-334,265.4,-1.36,1.93,-1.1,90.15,15.47,40.3,0,0,0,0,
-28,49,1364,0,0,0,-126,650,-334,265.4,-1.36,1.93,-1.1,90.15,15.47,40.3,0,0,0,0,
-28,49,1364,0,0,0,-126,650,-334,265.4,-1.36,1.93,-1.1,90.15,15.47,40.3,0,0,0,0,
-28,50,1366,-5,-2,0,-126,650,-334,265.4,-1.36,1.93,-1.1,90.15,15.47,40.3,0,0,0,0,
-28,50,1366,-5,-2,0,-128,657,-339,265.42,-1.36,1.93,-1.1,90.15,15.47,40.3,0,0,0,0,
-28,50,1366,-5,-2,0,-128,657,-339,265.42,-1.36,1.92,-1.1,90.15,15.47,40.3,0,0,0,0,
-28,50,1366,-5,-2,0,-128,657,-339,265.42,-1.36,1.92,-1.1,90.15,15.47,40.3,0,0,0,0,
-28,50,1366,-5,-2,0,-128,657,-339,265.42,-1.36,1.92,-1.1,90.15,15.47,40.3,0,0,0,0,
-28,50,1362,-1,2,0,-128,657,-339,265.42,-1.36,1.92,-1.1,90.15,15.47,40.3,0,0,0,0,
-28,50,1362,-1,2,0,-128,657,-339,265.42,-1.36,1.92,-1.1,90.15,15.47,40.3,0,0,0,0,
-28,50,1362,-1,2,0,-128,657,-339,265.42,-1.36,1.92,-1.1,90.15,15.47,40.3,0,0,0,0,
-28,48,1362,-2,-2,-3,-128,657,-339,265.42,-1.36,1.92,-1.1,90.15,15.47,40.3,0,0,0,0,
-28,48,1362,-2,-2,-3,-124,654,-338,265.42,-1.36,1.92,-1.1,90.15,15.47,40.3,0,0,0,0,
-28,48,1362,-2,-2,-3,-124,654,-338,265.42,-1.36,1.92,-1.1,90.15,15.47,40.3,0,0,0,0,
-28,48,1362,-2,-2,-3,-124,654,-338,265.42,-1.36,1.92,-1.1,90.15,15.47,40.3,0,0,0,0,
-28,48,1362,-2,-2,-3,-124,654,-338,265.42,-1.36,1.92,-1.1,90.15,15.47,40.3,0,0,0,0,
-28,47,1364,-3,2,0,-124,654,-338,265.42,-1.36,1.92,-1.1,90.15,15.47,40.3,0,0,0,0,
-28,47,1364,-3,2,0,-124,654,-338,265.42,-1.36,1.93,-1.1,90.15,15.47,40.3,0,0,0,0,
-28,47,1364,-3,2,0,-124,654,-338,265.42,-1.36,1.93,-1.1,90.15,15.47,40.3,0,0,0,0,
-28,52,1363,0,2,1,-124,654,-338,265.42,-1.36,1.93,-1.1,90.15,15.47,40.3,0,0,0,0,
-28,52,1363,0,2,1,-124,654,-338,265.42,-1.36,1.93,-1.1,90.15,15.47,40.3,0,0,0,0,
-30,51,1361,-1,0,0,-124,654,-338,265.42,-1.36,1.93,-1.1,90.15,15.47,40.3,0,0,0,0,
-30,51,1361,-1,0,0,-122,652,-337,265.44,-1.36,1.93,-1.1,90.15,15.47,40.3,0,0,0,0,
-30,51,1361,-1,0,0,-122,652,-337,265.44,-1.36,1.93,-1.1,90.15,15.47,40.3,0,0,0,0,
-30,51,1361,-1,0,0,-122,652,-337,265.44,-1.36,1.93,-1.1,90.15,15.47,40.3,0,0,0,0,
-30,51,1361,-1,0,0,-122,652,-337,265.44,-1.36,1.93,-1.1,90.15,15.47,40.3,0,0,0,0,
-27,52,1361,-5,3,-1,-122,652,-337,265.44,-1.36,1.93,-1.1,90.15,15.47,40.3,0,0,0,0,
-27,52,1361,-5,3,-1,-122,652,-337,265.44,-1.36,1.93,-1.1,90.15,15.47,40.3,0,0,0,0,
-27,52,1361,-5,3,-1,-122,652,-337,265.44,-1.36,1.93,-1.1,90.15,15.47,40.3,0,0,0,0,
-30,50,1367,-3,-1,0,-122,652,-337,265.44,-1.36,1.93,-1.1,90.15,15.47,40.3,0,0,0,0,
-30,50,1367,-3,-1,0,-99,632,-329,265.41,-1.36,1.93,-1.1,90.15,15.47,40.3,0,0,0,0,
-30,50,1367,-3,-1,0,-99,632,-329,265.41,-1.36,1.93,-1.1,90.15,15.47,40.3,0,0,0,0,
-30,50,1367,-3,-1,0,-99,632,-329,265.41,-1.36,1.93,-1.1,90.15,15.47,40.3,0,0,0,0,
-30,50,1367,-3,-1,0,-99,632,-329,265.41,-1.36,1.93,-1.1,90.15,15.47,40.3,0,0,0,0,
-29,52,1364,0,0,-1,-99,632,-329,265.41,-1.36,1.93,-1.1,90.15,15.47,40.3,0,0,0,0,
-29,52,1364,0,0,-1,-99,632,-329,265.41,-1.36,1.92,-1.1,90.15,15.47,40.3,0,0,0,0,
-29,52,1364,0,0,-1,-99,632,-329,265.41,-1.36,1.92,-1.1,90.15,15.47,40.3,0,0,0,0,
-29,50,1363,2,0,0,-99,632,-329,265.41,-1.36,1.92,-1.1,90.15,15.47,40.3,0,0,0,0,
-29,50,1363,2,0,0,-99,632,-329,265.41,-1.36,1.92,-1.1,90.15,15.47,40.3,0,0,0,0,
-30,52,1364,0,2,1,-99,632,-329,265.41,-1.36,1.92,-1.1,90.15,15.47,40.3,0,0,0,0,
-30,52,1364,0,2,1,-107,629,-330,265.42,-1.36,1.92,-1.1,90.15,15.47,40.3,0,0,0,0,
-30,52,1364,0,2,1,-107,629,-330,265.42,-1.36,1.92,-1.1,90.15,15.47,40.3,0,0,0,0,
-30,52,1364,0,2,1,-107,629,-330,265.42,-1.37,1.92,-1.1,90.15,15.47,40.3,0,0,0,0,
-30,52,1364,0,2,1,-107,629,-330,265.42,-1.37,1.92,-1.1,90.15,15.47,40.3,0,0,0,0,
-30,52,1364,0,2,1,-107,629,-330,265.42,-1.37,1.92,-1.1,90.15,15.47,40.3,0,0,0,0,
-28,53,1365,-6,-3,0,-107,629,-330,265.42,-1.37,1.92,-1.1,90.15,15.47,40.3,0,0,0,0,
-28,53,1365,-6,-3,0,-107,629,-330,265.42,-1.37,1.92,-1.1,90.15,15.47,40.3,0,0,0,0,
-28,53,1365,-6,-3,0,-107,629,-330,265.42,-1.37,1.92,-1.1,90.15,15.47,40.3,0,0,0,0,
-28,52,1366,-1,0,-1,-107,629,-330,265.42,-1.37,1.92,-1.1,90.15,15.47,40.3,0,0,0,0,
-28,52,1366,-1,0,-1,-104,630,-341,265.4,-1.37,1.92,-1.1,90.15,15.47,40.3,0,0,0,0,
-28,52,1366,-1,0,-1,-104,630,-341,265.4,-1.37,1.93,-1.1,90.16,15.47,40.3,0,0,0,0,
-28,52,1366,-1,0,-1,-104,630,-341,265.4,-1.37,1.93,-1.1,90.16,15.47,40.3,0,0,0,0,
-28,52,1366,-1,0,-1,-104,630,-341,265.4,-1.37,1.93,-1.1,90.16,15.47,40.3,0,0,0,0,
-27,54,1362,0,-1,0,-104,630,-341,265.4,-1.37,1.93,-1.1,90.16,15.47,40.3,0,0,0,0,
-27,54,1362,0,-1,0,-104,630,-341,265.4,-1.37,1.92,-1.1,90.16,15.47,40.3,0,0,0,0,
-27,54,1362,0,-1,0,-104,630,-341,265.4,-1.37,1.92,-1.1,90.16,15.47,40.3,0,0,0,0,
-28,49,1367,-3,-1,2,-104,630,-341,265.4,-1.37,1.92,-1.1,90.16,15.47,40.3,0,0,0,0,
-28,49,1367,-3,-1,2,-104,630,-341,265.4,-1.37,1.92,-1.1,90.16,15.47,40.3,0,0,0,0,
-26,50,1367,-1,2,1,-104,630,-341,265.4,-1.37,1.92,-1.1,90.16,15.47,40.3,0,0,0,0,
-26,50,1367,-1,2,1,-102,636,-326,265.46,-1.37,1.92,-1.1,90.16,15.47,40.3,0,0,0,0,
-26,50,1367,-1,2,1,-102,636,-326,265.46,-1.37,1.92,-1.1,90.15,15.47,40.3,0,0,0,0,
-26,50,1367,-1,2,1,-102,636,-326,265.46,-1.37,1.92,-1.1,90.15,15.47,40.3,0,0,0,0,
-26,50,1367,-1,2,1,-102,636,-326,265.46,-1.37,1.92,-1.1,90.15,15.47,40.3,0,0,0,0,
-28,50,1361,1,0,-1,-102,636,-326,265.46,-1.37,1.92,-1.1,90.15,15.47,40.3,0,0,0,0,
-28,50,1361,1,0,-1,-102,636,-326,265.46,-1.37,1.93,-1.11,90.16,15.47,40.3,0,0,0,0,
-28,50,1361,1,0,-1,-102,636,-326,265.46,-1.37,1.93,-1.11,90.16,15.47,40.3,0,0,0,0,
-28,50,1362,-2,2,0,-102,636,-326,265.46,-1.37,1.93,-1.11,90.16,15.47,40.3,0,0,0,0,
-28,50,1362,-2,2,0,-111,631,-321,265.4,-1.37,1.93,-1.11,90.16,15.47,40.3,0,0,0,0,
-28,50,1362,-2,2,0,-111,631,-321,265.4,-1.37,1.93,-1.11,90.15,15.47,40.3,0,0,0,0,
-28,50,1362,-2,2,0,-111,631,-321,265.4,-1.37,1.93,-1.11,90.15,15.47,40.3,0,0,0,0,
-28,50,1362,-2,2,0,-111,631,-321,265.4,-1.37,1.93,-1.11,90.15,15.47,40.3,0,0,0,0,
-29,51,1364,-2,-2,0,-111,631,-321,265.4,-1.37,1.93,-1.11,90.15,15.47,40.3,0,0,0,0,
-29,51,1364,-2,-2,0,-111,631,-321,265.4,-1.37,1.93,-1.11,90.16,15.47,40.3,0,0,0,0,
-29,51,1364,-2,-2,0,-111,631,-321,265.4,-1.37,1.93,-1.11,90.16,15.47,40.3,0,0,0,0,
-28,48,1364,1,0,-1,-111,631,-321,265.4,-1.37,1.93,-1.11,90.16,15.47,40.3,0,0,0,0,
-28,48,1364,1,0,-1,-111,631,-321,265.4,-1.37,1.93,-1.11,90.16,15.47,40.3,0,0,0,0,
-28,48,1360,2,-1,0,-111,631,-321,265.4,-1.37,1.93,-1.11,90.16,15.47,40.3,0,0,0,0,
-28,48,1360,2,-1,0,-104,632,-329,265.43,-1.37,1.93,-1.11,90.16,15.47,40.3,0,0,0,0,
-28,48,1360,2,-1,0,-104,632,-329,265.43,-1.37,1.93,-1.11,90.16,15.47,40.3,0,0,0,0,
-28,48,1360,2,-1,0,-104,632,-329,265.43,-1.37,1.93,-1.11,90.16,15.47,40.3,0,0,0,0,
-28,48,1360,2,-1,0,-104,632,-329,265.43,-1.37,1.93,-1.11,90.16,15.47,40.3,0,0,0,0,
-30,52,1364,-1,0,0,-104,632,-329,265.43,-1.37,1.93,-1.11,90.16,15.47,40.3,0,0,0,0,
-30,52,1364,-1,0,0,-104,632,-329,265.43,-1.37,1.93,-1.11,90.16,15.47,40.3,0,0,0,0,
-30,52,1364,-1,0,0,-104,632,-329,265.43,-1.37,1.93,-1.11,90.16,15.47,40.3,0,0,0,0,
-27,51,1366,0,1,0,-104,632,-329,265.43,-1.37,1.93,-1.11,90.16,15.47,40.3,0,0,0,0,
-27,51,1366,0,1,0,-99,627,-331,265.43,-1.37,1.93,-1.11,90.16,15.47,40.3,0,0,0,0,
-27,51,1366,0,1,0,-99,627,-331,265.43,-1.37,1.93,-1.11,90.16,15.47,40.3,0,0,0,0,
-27,51,1366,0,1,0,-99,627,-331,265.43,-1.37,1.93,-1.11,90.16,15.47,40.3,0,0,0,0,
-27,51,1366,0,1,0,-99,627,-331,265.43,-1.37,1.93,-1.11,90.16,15.47,40.3,0,0,0,0,
-31,51,1362,-2,0,-4,-99,627,-331,265.43,-1.37,1.93,-1.11,90.16,15.47,40.3,0,0,0,0,
-31,51,1362,-2,0,-4,-99,627,-331,265.43,-1.37,1.93,-1.11,90.16,15.47,40.3,0,0,0,0,
-31,51,1362,-2,0,-4,-99,627,-331,265.43,-1.37,1.93,-1.11,90.16,15.47,40.3,0,0,0,0,
-27,50,1367,0,0,1,-99,627,-331,265.43,-1.37,1.93,-1.11,90.16,15.47,40.3,0,0,0,0,
-27,50,1367,0,0,1,-99,627,-331,265.43,-1.37,1.93,-1.11,90.16,15.47,40.3,0,0,0,0,
-26,49,1366,0,3,0,-99,627,-331,265.43,-1.37,1.93,-1.11,90.16,15.47,40.3,0,0,0,0,
-26,49,1366,0,3,0,-106,628,-329,265.41,-1.37,1.93,-1.11,90.16,15.47,40.3,0,0,0,0,
-26,49,1366,0,3,0,-106,628,-329,265.41,-1.37,1.93,-1.11,90.16,15.47,40.3,0,0,0,0,
-26,49,1366,0,3,0,-106,628,-329,265.41,-1.37,1.93,-1.11,90.16,15.47,40.3,0,0,0,0,
-26,49,1366,0,3,0,-106,628,-329,265.41,-1.37,1.93,-1.11,90.16,15.47,40.3,0,0,0,0,
-26,49,1366,0,3,0,-106,628,-329,265.41,-1.37,1.93,-1.11,90.16,15.47,40.3,0,0,0,0,
-28,49,1362,-3,-1,0,-106,628,-329,265.41,-1.37,1.93,-1.11,90.16,15.47,40.3,0,0,0,0,
-28,49,1362,-3,-1,0,-106,628,-329,265.41,-1.37,1.93,-1.11,90.16,15.47,40.3,0,0,0,0,
-28,49,1362,-3,-1,0,-106,628,-329,265.41,-1.37,1.93,-1.11,90.16,15.47,40.3,0,0,0,0,
-29,49,1365,0,0,0,-106,628,-329,265.41,-1.37,1.93,-1.11,90.16,15.47,40.3,0,0,0,0,
-29,49,1365,0,0,0,-106,632,-327,265.42,-1.37,1.93,-1.11,90.16,15.47,40.3,0,0,0,0,
-29,49,1365,0,0,0,-106,632,-327,265.42,-1.37,1.93,-1.11,90.16,15.47,40.3,0,0,0,0,
-29,49,1365,0,0,0,-106,632,-327,265.42,-1.37,1.93,-1.11,90.16,15.47,40.3,0,0,0,0,
-29,49,1365,0,0,0,-106,632,-327,265.42,-1.37,1.93,-1.11,90.16,15.47,40.3,0,0,0,0,
-29,49,1368,-2,0,-1,-106,632,-327,265.42,-1.37,1.93,-1.11,90.16,15.47,40.3,0,0,0,0,
-29,49,1368,-2,0,-1,-106,632,-327,265.42,-1.37,1.93,-1.11,90.16,15.47,40.3,0,0,0,0,
-29,49,1368,-2,0,-1,-106,632,-327,265.42,-1.37,1.93,-1.11,90.16,15.47,40.3,0,0,0,0,
-28,48,1361,-4,-1,0,-106,632,-327,265.42,-1.37,1.93,-1.11,90.16,15.47,40.3,0,0,0,0,
-28,48,1361,-4,-1,0,-106,632,-327,265.42,-1.37,1.93,-1.11,90.16,15.47,40.3,0,0,0,0,
-29,54,1365,-2,0,-1,-106,632,-327,265.42,-1.37,1.93,-1.11,90.16,15.47,40.3,0,0,0,0,
-29,54,1365,-2,0,-1,-100,635,-325,265.41,-1.37,1.93,-1.11,90.16,15.47,40.3,0,0,0,0,
-29,54,1365,-2,0,-1,-100,635,-325,265.41,-1.37,1.93,-1.11,90.16,15.47,40.3,0,0,0,0,
-29,54,1365,-2,0,-1,-100,635,-325,265.41,-1.37,1.93,-1.11,90.16,15.47,40.3,0,0,0,0,
-29,54,1365,-2,0,-1,-100,635,-325,265.41,-1.37,1.93,-1.11,90.16,15.47,40.3,0,0,0,0,
-27,51,1364,-3,0,-1,-100,635,-325,265.41,-1.37,1.93,-1.11,90.16,15.47,40.3,0,0,0,0,
-27,51,1364,-3,0,-1,-100,635,-325,265.41,-1.37,1.93,-1.11,90.16,15.47,40.3,0,0,0,0,
-27,51,1364,-3,0,-1,-100,635,-325,265.41,-1.37,1.93,-1.11,90.16,15.47,40.3,0,0,0,0,
-29,51,1364,-6,2,-2,-100,635,-325,265.41,-1.37,1.93,-1.11,90.16,15.47,40.3,0,0,0,0,
-29,51,1364,-6,2,-2,-106,629,-326,265.44,-1.37,1.93,-1.11,90.16,15.47,40.3,0,0,0,0,
-29,51,1364,-6,2,-2,-106,629,-326,265.44,-1.37,1.93,-1.11,90.16,15.47,40.3,0,0,0,0,
-29,51,1364,-6,2,-2,-106,629,-326,265.44,-1.37,1.93,-1.11,90.16,15.47,40.3,0,0,0,0,
-29,51,1364,-6,2,-2,-106,629,-326,265.44,-1.37,1.93,-1.11,90.16,15.47,40.3,0,0,0,0,
-31,52,1365,-3,0,0,-106,629,-326,265.44,-1.37,1.93,-1.11,90.16,15.47,40.3,0,0,0,0,
-31,52,1365,-3,0,0,-106,629,-326,265.44,-1.37,1.93,-1.11,90.16,15.47,40.3,0,0,0,0,
-31,52,1365,-3,0,0,-106,629,-326,265.44,-1.37,1.93,-1.11,90.16,15.47,40.3,0,0,0,0,
-29,50,1364,-4,-1,1,-106,629,-326,265.44,-1.37,1.93,-1.11,90.16,15.47,40.3,0,0,0,0,
-29,50,1364,-4,-1,1,-106,629,-326,265.44,-1.37,1.93,-1.11,90.16,15.47,40.3,0,0,0,0,
-27,52,1366,-5,-3,0,-106,629,-326,265.44,-1.37,1.93,-1.11,90.16,15.47,40.3,0,0,0,0,
-27,52,1366,-5,-3,0,-105,634,-328,265.41,-1.37,1.93,-1.11,90.16,15.47,40.3,0,0,0,0,
-27,52,1366,-5,-3,0,-105,634,-328,265.41,-1.37,1.92,-1.11,90.16,15.47,40.3,0,0,0,0,
-27,52,1366,-5,-3,0,-105,634,-328,265.41,-1.37,1.92,-1.11,90.16,15.47,40.3,0,0,0,0,
-27,52,1366,-5,-3,0,-105,634,-328,265.41,-1.37,1.92,-1.11,90.16,15.47,40.3,0,0,0,0,
-29,49,1364,0,1,0,-105,634,-328,265.41,-1.37,1.92,-1.11,90.16,15.47,40.3,0,0,0,0,
-29,49,1364,0,1,0,-105,634,-328,265.41,-1.37,1.92,-1.11,90.16,15.47,40.3,0,0,0,0,
-29,49,1364,0,1,0,-105,634,-328,265.41,-1.37,1.92,-1.11,90.16,15.47,40.3,0,0,0,0,
-26,53,1365,-1,4,-3,-105,634,-328,265.41,-1.37,1.92,-1.11,90.16,15.47,40.3,0,0,0,0,
-26,53,1365,-1,4,-3,-119,643,-343,265.47,-1.37,1.92,-1.11,90.16,15.47,40.3,0,0,0,0,
-26,53,1365,-1,4,-3,-119,643,-343,265.47,-1.37,1.92,-1.11,90.16,15.47,40.3,0,0,0,0,
-26,53,1365,-1,4,-3,-119,643,-343,265.47,-1.37,1.92,-1.11,90.16,15.47,40.3,0,0,0,0,
-26,53,1365,-1,4,-3,-119,643,-343,265.47,-1.37,1.92,-1.11,90.16,15.47,40.3,0,0,0,0,
-29,54,1364,1,0,2,-119,643,-343,265.47,-1.37,1.92,-1.11,90.16,15.47,40.3,0,0,0,0,
-29,54,1364,1,0,2,-119,643,-343,265.47,-1.37,1.92,-1.11,90.16,15.47,40.3,0,0,0,0,
-29,54,1364,1,0,2,-119,643,-343,265.47,-1.37,1.92,-1.11,90.16,15.47,40.3,0,0,0,0,
-28,49,1364,1,0,-1,-119,643,-343,265.47,-1.37,1.92,-1.11,90.16,15.47,40.3,0,0,0,0,
-28,49,1364,1,0,-1,-119,643,-343,265.47,-1.37,1.92,-1.11,90.16,15.47,40.3,0,0,0,0,
-29,50,1362,2,0,0,-119,643,-343,265.47,-1.37,1.92,-1.11,90.16,15.47,40.3,0,0,0,0,
-29,50,1362,2,0,0,-117,646,-330,265.39,-1.37,1.92,-1.11,90.16,15.47,40.4,0,0,0,0,
